File: PHD_DISSERTATION/RMD Files PhD/DMA/fabian's hydrogel_25-60_5c min.csv
Time,Sample Temperature,Program Temperature,Frequency,Raw Dynamic Force,Raw Static Force,In-Phase Angle,Out-Of-Phase Angle,Zero Displacement,Min Displacement,Max Displacement,Spring Stiffness,C*,Measured Tan Delta,Corrected Total Tan Delta,Corrected Total Delta,Stiffness*,Total Stiffness',Stiffness Less Spring,Inertia,Sample Stiffness',Ratio of Sample to Total Stiffness,Total Stiffness'',Sample Stiffness'',Total Applied Static Force,Static Force,Static Force Corrected,Static Displacement,Static Displacement Corrected,Static Stress,Static Stress Corrected,Static Strain,Static Strain Corrected,Dynamic Force,Displacement Amplitude,Dynamic Stress,Dynamic Strain,Storage Modulus,Loss Modulus,Tan Delta,Loss Viscosity,Storage Viscosity,Complex Viscosity,Shear Storage Modulus,Shear Loss Modulus,Complex Modulus,Shear Complex Modulus,
0.000000,22.6625,25,1.000001,55,2390,1.00772e+06,23287.4,5.96037e+07,56647.5,59746.8,0.000052,1.00799e+06,0.023109,0.010194,0.010193,3223.76,3225.22,158.407,1.697535,160.105,0.049615,32.8935,30.9014,1.996563,0.289362,0.000585,0.745374,0.000140,623351,1259.32,0.009546,0.000002,0.007942,0.049651,17109.1,0.000636,2.69301e+07,5.19771e+06,0.193007,827241,4.28606e+06,4.36516e+06,9.97412e+06,1.92508e+06,2.74271e+07,1.01582e+07,
0.130767,23.2125,25,1.000001,55,2390,1.00779e+06,23322,5.96039e+07,56645.9,59745.9,0.000052,1.00806e+06,0.023142,0.010226,0.010226,3223.52,3224.97,158.148,1.697535,159.846,0.049539,32.9961,31.0039,1.996563,0.289385,0.000608,0.745379,0.000146,623401,1309.01,0.009546,0.000002,0.007930,0.049654,17082.8,0.000636,2.68866e+07,5.21496e+06,0.193961,829986,4.27913e+06,4.35888e+06,9.958e+06,1.93147e+06,2.73877e+07,1.01436e+07,
0.259199,23.575,25,1.000001,55,2390,1.00784e+06,23222.2,5.96043e+07,56647.9,59747.2,0.000052,1.00811e+06,0.023042,0.010126,0.010126,3223.36,3224.82,157.98,1.697535,159.677,0.049489,32.6716,30.6794,1.996563,0.289436,0.000658,0.745391,0.000158,623510,1417.9,0.009546,0.000002,0.007922,0.049657,17065.6,0.000636,2.68582e+07,5.16038e+06,0.192134,821299,4.27461e+06,4.3528e+06,9.94748e+06,1.91125e+06,2.73495e+07,1.01294e+07,
0.388409,23.9,25,1.000001,55,2390,1.008e+06,23322.1,5.96045e+07,56649.4,59747.2,0.000052,1.00827e+06,0.023137,0.010222,0.010221,3222.86,3224.32,157.463,1.697535,159.16,0.049336,32.9746,30.9824,1.996563,0.289466,0.000689,0.745399,0.000165,623576,1483.86,0.009547,0.000002,0.007898,0.049665,17013,0.000636,2.67713e+07,5.21134e+06,0.194662,829409,4.26077e+06,4.34075e+06,9.91528e+06,1.93012e+06,2.72738e+07,1.01014e+07,
0.519180,24.1,25,1.000001,55,2390,1.0081e+06,23302.2,5.96047e+07,56647,59746.6,0.000052,1.00837e+06,0.023115,0.010200,0.010199,3222.52,3223.98,157.119,1.697535,158.816,0.049235,32.8998,30.9076,1.996563,0.289491,0.000714,0.745405,0.000171,623630,1538.2,0.009547,0.000002,0.007881,0.049670,16978,0.000636,2.67134e+07,5.19875e+06,0.194612,827407,4.25157e+06,4.33133e+06,9.89386e+06,1.92546e+06,2.72146e+07,1.00795e+07,
0.648131,24.2125,25,1.000001,55,2390,1.00833e+06,23370.2,5.96052e+07,56647.4,59752.1,0.000052,1.0086e+06,0.023177,0.010262,0.010261,3221.79,3223.25,156.361,1.697535,158.059,0.049011,33.0929,31.1007,1.996563,0.289559,0.000782,0.745421,0.000187,623776,1684.49,0.009547,0.000002,0.007845,0.049681,16900.8,0.000636,2.6586e+07,5.23123e+06,0.196767,832576,4.23128e+06,4.31242e+06,9.84665e+06,1.93749e+06,2.70957e+07,1.00355e+07,
0.776303,24.3,25,1.000001,55,2390,1.00838e+06,23253.6,5.96056e+07,56649.2,59752,0.000052,1.00865e+06,0.023060,0.010145,0.010145,3221.65,3223.11,156.203,1.697535,157.901,0.048964,32.7152,30.7229,1.996563,0.289614,0.000837,0.745434,0.000200,623895,1802.71,0.009547,0.000003,0.007838,0.049683,16884.7,0.000636,2.65594e+07,5.1677e+06,0.194571,822464,4.22706e+06,4.30633e+06,9.83683e+06,1.91396e+06,2.70575e+07,1.00213e+07,
0.923192,24.3,25,1.000001,55,2390,1.00841e+06,23224.2,5.9606e+07,56645.1,59751.2,0.000052,1.00868e+06,0.023031,0.010115,0.010115,3221.55,3223.01,156.087,1.697535,157.785,0.048930,32.6179,30.6257,1.996563,0.289665,0.000888,0.745446,0.000213,624005,1912.98,0.009547,0.000003,0.007832,0.049685,16872.8,0.000636,2.65399e+07,5.15134e+06,0.194098,819861,4.22395e+06,4.30278e+06,9.82959e+06,1.90791e+06,2.70352e+07,1.0013e+07,
1.050584,24.3,25,1.000001,55,2390,1.00856e+06,23361.8,5.96064e+07,56649.2,59752.5,0.000052,1.00883e+06,0.023163,0.010248,0.010248,3221.06,3222.51,155.573,1.697535,157.271,0.048778,33.0411,31.0489,1.996563,0.289710,0.000933,0.745457,0.000224,624102,2009.9,0.009547,0.000003,0.007808,0.049692,16820.4,0.000636,2.64535e+07,5.22252e+06,0.197423,831190,4.2102e+06,4.29146e+06,9.79758e+06,1.93427e+06,2.69641e+07,9.98669e+06,
1.181615,24.4,25.6552,1.000001,55,2390,1.00867e+06,23189.8,5.9607e+07,56648.9,59752.8,0.000052,1.00894e+06,0.022990,0.010075,0.010075,3220.72,3222.18,155.208,1.697535,156.905,0.048670,32.4799,30.4877,1.996563,0.289789,0.001011,0.745476,0.000242,624270,2178.53,0.009548,0.000003,0.007791,0.049698,16783.1,0.000636,2.6392e+07,5.12812e+06,0.194306,816166,4.20041e+06,4.27896e+06,9.7748e+06,1.89931e+06,2.68855e+07,9.95761e+06,
1.325904,24.5,26.3766,1.000001,55,2390,1.00874e+06,23127.1,5.96072e+07,56650.8,59750,0.000052,1.00901e+06,0.022927,0.010011,0.010011,3220.5,3221.96,154.983,1.697535,156.681,0.048603,32.2727,30.2804,1.996563,0.289821,0.001044,0.745484,0.000250,624341,2248.58,0.009548,0.000003,0.007780,0.049701,16760.2,0.000637,2.63543e+07,5.09327e+06,0.193262,810618,4.19441e+06,4.27202e+06,9.76083e+06,1.8864e+06,2.68419e+07,9.94145e+06,
1.454856,24.5875,27.0214,1.000001,55,2390,1.00893e+06,23054.5,5.96075e+07,56649.4,59752.2,0.000052,1.00919e+06,0.022850,0.009935,0.009935,3219.9,3221.37,154.374,1.697535,156.072,0.048423,32.021,30.0287,1.996563,0.289860,0.001082,0.745493,0.000259,624423,2331.31,0.009548,0.000003,0.007751,0.049710,16698.2,0.000637,2.62518e+07,5.05093e+06,0.192403,803880,4.1781e+06,4.25473e+06,9.72289e+06,1.87071e+06,2.67333e+07,9.90122e+06,
1.585886,24.825,27.6765,1.000001,55,2390,1.00892e+06,23183.6,5.9608e+07,56648.1,59751.6,0.000052,1.00919e+06,0.022979,0.010063,0.010063,3219.93,3221.39,154.37,1.697535,156.068,0.048422,32.4343,30.442,1.996563,0.289925,0.001148,0.745509,0.000275,624565,2473.28,0.009548,0.000004,0.007751,0.049710,16697.6,0.000637,2.62512e+07,5.12044e+06,0.195056,814943,4.178e+06,4.25673e+06,9.72265e+06,1.89646e+06,2.67459e+07,9.90588e+06,
1.730434,25.25,28.3993,1.000001,55,2390,1.00898e+06,23167.6,5.96082e+07,56650,59754.9,0.000052,1.00924e+06,0.022961,0.010046,0.010046,3219.75,3221.21,154.181,1.697535,155.879,0.048366,32.3772,30.3849,1.996563,0.289950,0.001173,0.745515,0.000281,624618,2526.18,0.009548,0.000004,0.007742,0.049713,16678.4,0.000637,2.62194e+07,5.11084e+06,0.194926,813415,4.17294e+06,4.25148e+06,9.71087e+06,1.8929e+06,2.67128e+07,9.89364e+06,
1.859128,25.9625,29.0427,1.000001,55,2390,1.00924e+06,22931.6,5.96083e+07,56652.1,59751.9,0.000052,1.0095e+06,0.022722,0.009806,0.009806,3218.91,3220.38,153.347,1.697535,155.045,0.048120,31.5962,29.6039,1.996563,0.289969,0.001192,0.745519,0.000286,624660,2567.74,0.009548,0.000004,0.007703,0.049726,16593.4,0.000637,2.60791e+07,4.97947e+06,0.190938,792507,4.15061e+06,4.22559e+06,9.65891e+06,1.84425e+06,2.65502e+07,9.8334e+06,
1.989118,26.6625,29.6927,1.000001,55,2390,1.00945e+06,23023.4,5.96086e+07,56648,59755.1,0.000052,1.00971e+06,0.022808,0.009893,0.009892,3218.24,3219.71,152.662,1.697535,154.36,0.047917,31.8672,29.8749,1.996563,0.290006,0.001229,0.745528,0.000294,624739,2646.92,0.009548,0.000004,0.007670,0.049736,16523.5,0.000637,2.59638e+07,5.02506e+06,0.193541,799762,4.13226e+06,4.20894e+06,9.61622e+06,1.86113e+06,2.64456e+07,9.79467e+06,
2.119109,27.5375,30.3426,1.000001,55,2390,1.00979e+06,22918.4,5.9609e+07,56649.5,59754.4,0.000052,1.01005e+06,0.022696,0.009781,0.009781,3217.19,3218.66,151.593,1.697535,153.291,0.047601,31.4978,29.5055,1.996563,0.290052,0.001275,0.745539,0.000305,624839,2746.81,0.009548,0.000004,0.007620,0.049752,16414.4,0.000637,2.5784e+07,4.96292e+06,0.192480,789873,4.10365e+06,4.17898e+06,9.54964e+06,1.83812e+06,2.62573e+07,9.72493e+06,
2.265220,28.525,31.0732,1.000001,55,2390,1.01014e+06,22957.4,5.96094e+07,56647.6,59758.6,0.000052,1.0104e+06,0.022727,0.009812,0.009811,3216.06,3217.53,150.444,1.697535,152.142,0.047260,31.5854,29.5931,1.996563,0.290106,0.001329,0.745552,0.000318,624954,2862.12,0.009548,0.000004,0.007565,0.049770,16297.1,0.000637,2.55907e+07,4.97766e+06,0.194510,792218,4.07289e+06,4.14922e+06,9.47805e+06,1.84358e+06,2.60703e+07,9.65568e+06,
2.392869,29.2125,31.7114,1.000001,55,2390,1.01052e+06,22807.1,5.96099e+07,56650.5,59758.1,0.000052,1.01077e+06,0.022570,0.009655,0.009654,3214.87,3216.34,149.238,1.697535,150.936,0.046903,31.0683,29.0759,1.996563,0.290166,0.001388,0.745566,0.000333,625083,2990.89,0.009549,0.000004,0.007508,0.049788,16173.9,0.000638,2.53879e+07,4.89066e+06,0.192638,778373,4.04061e+06,4.1149e+06,9.40293e+06,1.81136e+06,2.58547e+07,9.5758e+06,
2.522080,29.9875,32.3575,1.000001,55,2390,1.011e+06,22799.2,5.96105e+07,56648.5,59757.9,0.000052,1.01126e+06,0.022551,0.009636,0.009636,3213.32,3214.79,147.657,1.697535,149.354,0.046434,30.9932,29.0009,1.996563,0.290254,0.001477,0.745587,0.000354,625273,3181.06,0.009549,0.000005,0.007433,0.049812,16012.1,0.000638,2.51219e+07,4.87804e+06,0.194175,776364,3.99827e+06,4.07295e+06,9.3044e+06,1.80668e+06,2.55911e+07,9.47818e+06,
2.650513,30.7625,32.9996,1.000001,55,2390,1.01114e+06,22789.5,5.96114e+07,56651.5,59759,0.000052,1.0114e+06,0.022538,0.009623,0.009623,3212.89,3214.36,147.178,1.697535,148.876,0.046292,30.9482,28.9558,1.996563,0.290375,0.001597,0.745616,0.000383,625533,3441.29,0.009549,0.000005,0.007410,0.049819,15963,0.000638,2.50414e+07,4.87046e+06,0.194496,775158,3.98546e+06,4.06015e+06,9.2746e+06,1.80387e+06,2.55107e+07,9.4484e+06,
2.785963,31.5125,33.6769,1.000001,55,2390,1.01175e+06,22632.2,5.96118e+07,56649,59759.4,0.000052,1.012e+06,0.022369,0.009454,0.009454,3210.97,3212.44,145.246,1.697535,146.944,0.045718,30.3869,28.3945,1.996563,0.290418,0.001641,0.745627,0.000393,625627,3534.92,0.009549,0.000005,0.007318,0.049849,15765.2,0.000638,2.47164e+07,4.77604e+06,0.193234,760130,3.93374e+06,4.0065e+06,9.15423e+06,1.7689e+06,2.51736e+07,9.32357e+06,
2.930252,32.2875,34.3983,1.000001,55,2390,1.01215e+06,22628.2,5.96127e+07,56649.4,59762.1,0.000052,1.0124e+06,0.022357,0.009442,0.009441,3209.7,3211.17,143.937,1.697535,145.635,0.045329,30.3338,28.3414,1.996563,0.290536,0.001758,0.745655,0.000421,625880,3788.04,0.009550,0.000005,0.007256,0.049869,15630.9,0.000639,2.44962e+07,4.76711e+06,0.194606,758709,3.89869e+06,3.97183e+06,9.07267e+06,1.7656e+06,2.49558e+07,9.24287e+06,
3.059204,32.9875,35.0431,1.000001,55,2390,1.01262e+06,22645,5.96128e+07,56643.6,59763.9,0.000052,1.01287e+06,0.022363,0.009448,0.009447,3208.21,3209.68,142.435,1.697535,144.132,0.044882,30.3394,28.3469,1.996563,0.290554,0.001777,0.745659,0.000426,625920,3827.57,0.009550,0.000005,0.007184,0.049892,15476.9,0.000639,2.42435e+07,4.76805e+06,0.196673,758858,3.85847e+06,3.93239e+06,8.97908e+06,1.76594e+06,2.47079e+07,9.15109e+06,
3.205312,33.725,35.7736,1.000001,55,2390,1.01325e+06,22485,5.96134e+07,56642.6,59772.4,0.000052,1.0135e+06,0.022191,0.009276,0.009276,3206.23,3207.7,140.433,1.697535,142.13,0.044286,29.7697,27.7772,1.996563,0.290636,0.001858,0.745679,0.000445,626096,4003.56,0.009550,0.000006,0.007089,0.049923,15271.3,0.000639,2.39068e+07,4.67222e+06,0.195435,743607,3.80488e+06,3.87686e+06,8.85436e+06,1.73045e+06,2.43591e+07,9.02188e+06,
3.334785,34.6375,36.421,1.000001,55,2390,1.01366e+06,22306.2,5.96144e+07,56650.1,59768.6,0.000052,1.01391e+06,0.022006,0.009091,0.009090,3204.94,3206.42,139.102,1.697535,140.8,0.043889,29.1633,27.1708,1.996563,0.290757,0.001980,0.745708,0.000474,626357,4264.59,0.009550,0.000006,0.007025,0.049943,15134.4,0.000640,2.3683e+07,4.57022e+06,0.192975,727373,3.76926e+06,3.8388e+06,8.77148e+06,1.69267e+06,2.41199e+07,8.9333e+06,
3.496752,35.25,37.2308,1.000001,55,2390,1.01394e+06,22194.5,5.96158e+07,56648.9,59768.1,0.000052,1.01418e+06,0.021889,0.008975,0.008974,3204.07,3205.55,138.168,1.697535,139.866,0.043609,28.7827,26.7902,1.996563,0.290940,0.002162,0.745752,0.000518,626750,4658.51,0.009551,0.000007,0.006981,0.049957,15038.1,0.000640,2.35259e+07,4.5062e+06,0.191542,717183,3.74426e+06,3.81233e+06,8.7133e+06,1.66896e+06,2.39536e+07,8.87169e+06,
3.625444,35.925,37.8743,1.000001,55,2390,1.01435e+06,22232.2,5.96163e+07,56649.2,59769.9,0.000052,1.01459e+06,0.021918,0.009003,0.009003,3202.78,3204.26,136.854,1.697535,138.551,0.043217,28.8622,26.8697,1.996563,0.291010,0.002233,0.745769,0.000535,626902,4810.13,0.009551,0.000007,0.006918,0.049977,14902.7,0.000640,2.33048e+07,4.51957e+06,0.193933,719311,3.70906e+06,3.77817e+06,8.63139e+06,1.67391e+06,2.3739e+07,8.79221e+06,
3.754655,36.5,38.5204,1.000001,55,2390,1.01486e+06,22172.5,5.9617e+07,56651.1,59773.1,0.000052,1.01511e+06,0.021848,0.008933,0.008933,3201.15,3202.63,135.189,1.697535,136.886,0.042719,28.6231,26.6305,1.996563,0.291106,0.002328,0.745791,0.000558,627108,5015.94,0.009552,0.000007,0.006838,0.050002,14731.1,0.000640,2.30247e+07,4.47934e+06,0.194545,712909,3.66449e+06,3.7332e+06,8.52767e+06,1.65902e+06,2.34564e+07,8.68755e+06,
3.884906,37.2375,39.1716,1.000001,55,2390,1.01517e+06,22256,5.96177e+07,56649.1,59771.5,0.000052,1.01541e+06,0.021923,0.009009,0.009008,3200.18,3201.65,134.186,1.697535,135.884,0.042419,28.8567,26.8641,1.996563,0.291192,0.002415,0.745812,0.000578,627294,5202.31,0.009552,0.000007,0.006790,0.050017,14627.7,0.000641,2.28561e+07,4.51864e+06,0.197700,719163,3.63765e+06,3.70806e+06,8.46521e+06,1.67357e+06,2.32985e+07,8.62906e+06,
4.030496,38.0125,39.8996,1.000001,55,2390,1.01557e+06,22094.8,5.96187e+07,56650.8,59775.5,0.000052,1.01581e+06,0.021756,0.008841,0.008841,3198.95,3200.42,132.907,1.697535,134.605,0.042036,28.3101,26.3175,1.996563,0.291327,0.002550,0.745844,0.000611,627585,5492.55,0.009552,0.000008,0.006729,0.050037,14495.6,0.000641,2.2641e+07,4.42668e+06,0.195517,704528,3.60342e+06,3.67164e+06,8.38554e+06,1.63951e+06,2.30696e+07,8.54431e+06,
4.158928,38.675,40.5417,1.000001,55,2390,1.01592e+06,22040.2,5.96197e+07,56650.6,59774.4,0.000052,1.01616e+06,0.021695,0.008780,0.008780,3197.83,3199.31,131.743,1.697535,133.441,0.041687,28.1041,26.1115,1.996563,0.291459,0.002682,0.745876,0.000642,627869,5777.37,0.009553,0.000008,0.006673,0.050054,14375.2,0.000641,2.24452e+07,4.39204e+06,0.195679,699014,3.57226e+06,3.64001e+06,8.31303e+06,1.62668e+06,2.28709e+07,8.47069e+06,
4.288139,39.525,41.1878,1.000001,55,2390,1.01639e+06,22022.6,5.96208e+07,56650.4,59778.4,0.000052,1.01663e+06,0.021668,0.008753,0.008753,3196.36,3197.84,130.221,1.697535,131.919,0.041231,28.0038,26.0111,1.996563,0.291603,0.002825,0.745910,0.000677,628178,6085.99,0.009553,0.000009,0.006600,0.050077,14217.8,0.000641,2.21892e+07,4.37516e+06,0.197175,696328,3.53152e+06,3.59951e+06,8.21822e+06,1.62043e+06,2.26164e+07,8.37646e+06,
4.451148,40.3625,42.0028,1.000001,55,2390,1.01688e+06,22052.5,5.96221e+07,56650.8,59779.2,0.000052,1.01712e+06,0.021686,0.008772,0.008771,3194.8,3196.28,128.605,1.697535,130.303,0.040745,28.0504,26.0577,1.996563,0.291768,0.002991,0.745950,0.000716,628535,6443.31,0.009554,0.000009,0.006522,0.050102,14050.5,0.000642,2.19173e+07,4.38299e+06,0.199978,697574,3.48825e+06,3.55732e+06,8.11753e+06,1.62333e+06,2.23513e+07,8.27826e+06,
4.596738,41.0875,42.7308,1.000001,55,2390,1.01747e+06,21912.4,5.96231e+07,56649.5,59779.6,0.000052,1.01771e+06,0.021536,0.008621,0.008621,3192.97,3194.45,126.729,1.697535,128.427,0.040182,27.5544,25.5616,1.996563,0.291896,0.003118,0.745981,0.000747,628809,6717.48,0.009554,0.000010,0.006432,0.050130,13856.1,0.000642,2.16018e+07,4.29955e+06,0.199037,684294,3.43803e+06,3.50546e+06,8.00066e+06,1.59243e+06,2.20255e+07,8.15759e+06,
4.743366,41.5875,43.4639,1.000001,55,2390,1.0179e+06,21933.6,5.96236e+07,56649.1,59783.1,0.000052,1.01814e+06,0.021548,0.008633,0.008633,3191.63,3193.1,125.359,1.697535,127.057,0.039770,27.5805,25.5877,1.996563,0.291961,0.003184,0.745996,0.000762,628950,6858.08,0.009554,0.000010,0.006366,0.050152,13714.1,0.000642,2.13714e+07,4.30394e+06,0.201388,684992,3.40136e+06,3.46965e+06,7.91532e+06,1.59405e+06,2.18004e+07,8.07424e+06,
4.876478,42.5125,44.1295,1.000001,55,2390,1.01844e+06,21878.1,5.96251e+07,56651.2,59781.8,0.000052,1.01867e+06,0.021482,0.008567,0.008567,3189.95,3191.43,123.616,1.697535,125.314,0.039245,27.3559,25.3631,1.996563,0.292155,0.003377,0.746043,0.000809,629367,7275.09,0.009555,0.000010,0.006282,0.050178,13533,0.000643,2.10782e+07,4.26615e+06,0.202397,678979,3.35469e+06,3.42271e+06,7.80673e+06,1.58006e+06,2.15056e+07,7.96502e+06,
5.054826,43.2875,45.0212,1.000001,55,2390,1.01886e+06,21922.6,5.96261e+07,56650.6,59787.5,0.000052,1.01909e+06,0.021517,0.008602,0.008602,3188.63,3190.1,122.243,1.697535,123.94,0.038831,27.4556,25.4627,1.996563,0.292297,0.003519,0.746077,0.000843,629673,7581.25,0.009555,0.000011,0.006216,0.050199,13390.3,0.000643,2.08472e+07,4.28291e+06,0.205443,681646,3.31793e+06,3.38722e+06,7.72117e+06,1.58626e+06,2.12826e+07,7.88243e+06,
5.184037,43.9,45.6673,1.000001,55,2390,1.01945e+06,21823.5,5.96272e+07,56647.9,59785.5,0.000052,1.01968e+06,0.021407,0.008492,0.008492,3186.78,3188.26,120.345,1.697535,122.043,0.038258,27.0897,25.0969,1.996563,0.292442,0.003665,0.746111,0.000878,629987,7894.72,0.009556,0.000011,0.006124,0.050228,13192.9,0.000643,2.0528e+07,4.22137e+06,0.205640,671852,3.26713e+06,3.3355e+06,7.60297e+06,1.56347e+06,2.09576e+07,7.76206e+06,
5.314808,44.4875,46.3211,1.000001,55,2390,1.01975e+06,21863.8,5.96282e+07,56652.8,59787.6,0.000052,1.01999e+06,0.021440,0.008526,0.008525,3185.83,3187.3,119.347,1.697535,121.045,0.037957,27.1871,25.1942,1.996563,0.292564,0.003786,0.746140,0.000907,630248,8156.21,0.009556,0.000012,0.006076,0.050243,13088.9,0.000643,2.03601e+07,4.23774e+06,0.208139,674457,3.24041e+06,3.30986e+06,7.54079e+06,1.56953e+06,2.07965e+07,7.7024e+06,
5.444019,45.35,46.9672,1.000001,55,2390,1.02046e+06,21794.5,5.96295e+07,56648.5,59791.6,0.000052,1.0207e+06,0.021357,0.008443,0.008443,3183.62,3185.09,117.077,1.697535,118.774,0.037271,26.9045,24.9116,1.996563,0.292731,0.003954,0.746181,0.000947,630610,8517.95,0.009557,0.000012,0.005966,0.050278,12852.3,0.000644,1.99782e+07,4.19021e+06,0.209739,666892,3.17963e+06,3.24881e+06,7.39934e+06,1.55193e+06,2.04129e+07,7.56034e+06,
5.605467,46.2375,47.7744,1.000001,55,2390,1.0209e+06,21787,5.96314e+07,56653,59793.9,0.000052,1.02113e+06,0.021341,0.008426,0.008426,3182.27,3183.74,115.639,1.697535,117.337,0.036835,26.8409,24.8479,1.996563,0.292980,0.004202,0.746240,0.001006,631145,9052.55,0.009557,0.000013,0.005896,0.050299,12702.1,0.000644,1.97364e+07,4.1795e+06,0.211766,665187,3.14114e+06,3.2108e+06,7.30978e+06,1.54796e+06,2.01741e+07,7.47188e+06,
5.751058,46.7375,48.5024,1.000001,55,2390,1.02147e+06,21767,5.96326e+07,56653,59794.4,0.000052,1.0217e+06,0.021310,0.008395,0.008395,3180.5,3181.97,113.807,1.697535,115.505,0.036280,26.7257,24.7326,1.996563,0.293136,0.004359,0.746277,0.001044,631482,9389.65,0.009558,0.000013,0.005808,0.050327,12510.8,0.000645,1.94283e+07,4.16011e+06,0.214126,662102,3.09211e+06,3.1622e+06,7.19567e+06,1.54078e+06,1.98687e+07,7.35878e+06,
5.880268,47.4875,49.1484,1.000001,55,2390,1.02193e+06,21704.9,5.96345e+07,56656.8,59797.5,0.000052,1.02216e+06,0.021239,0.008325,0.008324,3179.06,3180.53,112.28,1.697535,113.978,0.035817,26.4895,24.4964,1.996563,0.293391,0.004614,0.746339,0.001105,632031,9939,0.009559,0.000014,0.005733,0.050350,12351,0.000645,1.91715e+07,4.12038e+06,0.214922,655778,3.05123e+06,3.12091e+06,7.10054e+06,1.52607e+06,1.96093e+07,7.26269e+06,
6.030278,48.325,49.8985,1.000001,55,2390,1.02266e+06,21677.6,5.96368e+07,56655.8,59802.4,0.000052,1.02289e+06,0.021197,0.008283,0.008282,3176.78,3178.25,109.894,1.697535,111.592,0.035092,26.3373,24.3442,1.996563,0.293687,0.004910,0.746409,0.001176,632669,10577.1,0.009559,0.000015,0.005617,0.050386,12101.1,0.000645,1.87701e+07,4.09477e+06,0.218154,651703,2.98735e+06,3.05761e+06,6.95189e+06,1.51658e+06,1.92116e+07,7.11539e+06,
6.180029,49.0875,50.6472,1.000001,55,2390,1.02304e+06,21789.4,5.96388e+07,56655.2,59805.2,0.000052,1.02327e+06,0.021299,0.008384,0.008384,3175.61,3177.07,108.621,1.697535,110.319,0.034705,26.65,24.6567,1.996563,0.293960,0.005182,0.746475,0.001241,633256,11164.1,0.009560,0.000016,0.005555,0.050405,11967.5,0.000646,1.8556e+07,4.14735e+06,0.223504,660070,2.95328e+06,3.02614e+06,6.87259e+06,1.53605e+06,1.90138e+07,7.04216e+06,
6.309499,49.775,51.2946,1.000001,55,2390,1.02338e+06,21638.4,5.96407e+07,56659.4,59808.8,0.000052,1.02361e+06,0.021144,0.008230,0.008229,3174.57,3176.04,107.498,1.697535,109.195,0.034363,26.1502,24.1569,1.996563,0.294203,0.005426,0.746533,0.001299,633780,11688.3,0.009561,0.000017,0.005501,0.050421,11849.5,0.000646,1.8367e+07,4.06327e+06,0.221227,646690,2.9232e+06,2.99388e+06,6.8026e+06,1.50492e+06,1.88111e+07,6.96708e+06,
6.438710,50.4625,51.9406,1.000001,55,2390,1.02387e+06,21540.2,5.96426e+07,56658.8,59810.9,0.000052,1.02409e+06,0.021038,0.008124,0.008123,3173.05,3174.53,105.896,1.697535,107.594,0.033875,25.8014,23.808,1.996563,0.294457,0.005680,0.746594,0.001360,634328,12235.6,0.009562,0.000017,0.005422,0.050445,11681.2,0.000646,1.80976e+07,4.00459e+06,0.221277,637349,2.88032e+06,2.94999e+06,6.70282e+06,1.48318e+06,1.85354e+07,6.86495e+06,
6.621737,51.2,52.8558,1.000001,55,2390,1.02429e+06,21445.6,5.96444e+07,56662.1,59812.9,0.000052,1.02451e+06,0.020937,0.008023,0.008022,3171.76,3173.24,104.526,1.697535,106.223,0.033457,25.4704,23.477,1.996563,0.294685,0.005908,0.746648,0.001414,634819,12726.5,0.009563,0.000018,0.005356,0.050466,11537.1,0.000646,1.78671e+07,3.94891e+06,0.221016,628487,2.84363e+06,2.91225e+06,6.61743e+06,1.46256e+06,1.82982e+07,6.77713e+06,
6.772787,51.8375,53.611,1.000001,55,2390,1.02475e+06,21387.1,5.96453e+07,56661.4,59810.2,0.000052,1.02497e+06,0.020871,0.007956,0.007956,3170.33,3171.8,103.051,1.697535,104.748,0.033007,25.2477,23.2543,1.996563,0.294805,0.006027,0.746677,0.001443,635076,12983.8,0.009563,0.000018,0.005284,0.050489,11382.1,0.000647,1.7619e+07,3.91145e+06,0.222001,622525,2.80415e+06,2.87242e+06,6.52556e+06,1.44868e+06,1.8048e+07,6.68443e+06,
6.906158,52.4625,54.2779,1.000001,55,2390,1.02525e+06,21371.9,5.96463e+07,56658.1,59815,0.000052,1.02547e+06,0.020846,0.007931,0.007931,3168.79,3170.26,101.46,1.697535,103.157,0.032522,25.1559,23.1625,1.996563,0.294931,0.006154,0.746707,0.001473,635349,13256.9,0.009563,0.000019,0.005206,0.050514,11214.6,0.000647,1.73514e+07,3.89601e+06,0.224536,620068,2.76155e+06,2.83031e+06,6.42643e+06,1.44297e+06,1.77834e+07,6.58644e+06,
7.035108,53.3125,54.9226,1.000001,55,2390,1.02574e+06,21430.9,5.96475e+07,56664.1,59817.9,0.000052,1.02597e+06,0.020893,0.007979,0.007978,3167.26,3168.73,99.8715,1.697535,101.569,0.032036,25.2943,23.3008,1.996563,0.295096,0.006318,0.746746,0.001513,635703,13610.9,0.009564,0.000019,0.005128,0.050538,11047.3,0.000647,1.70842e+07,3.91927e+06,0.229409,623771,2.71904e+06,2.78967e+06,6.3275e+06,1.45158e+06,1.7528e+07,6.49187e+06,
7.179658,54.2,55.6454,1.000001,55,2390,1.02634e+06,21414.8,5.96491e+07,56661.1,59818.4,0.000052,1.02656e+06,0.020865,0.007951,0.007951,3165.44,3166.91,97.9738,1.697535,99.6713,0.031456,25.1919,23.1984,1.996563,0.295306,0.006529,0.746797,0.001563,636157,14065,0.009564,0.000020,0.005035,0.050567,10847.1,0.000648,1.6765e+07,3.90204e+06,0.232748,621028,2.66824e+06,2.73956e+06,6.20928e+06,1.4452e+06,1.72132e+07,6.37524e+06,
7.342666,54.9875,56.4604,1.000001,55,2390,1.0271e+06,21461.8,5.96505e+07,56662.5,59822,0.000052,1.02732e+06,0.020896,0.007981,0.007981,3163.09,3164.55,95.5558,1.697535,97.2533,0.030716,25.2689,23.2754,1.996563,0.295481,0.006704,0.746839,0.001605,636534,14441.8,0.009565,0.000021,0.004917,0.050605,10591.9,0.000648,1.63583e+07,3.91499e+06,0.239327,623090,2.60351e+06,2.67703e+06,6.05864e+06,1.45e+06,1.68203e+07,6.22974e+06,
7.472138,55.55,57.1078,1.000001,55,2390,1.02739e+06,21385.6,5.96515e+07,56661.2,59822.9,0.000052,1.02762e+06,0.020815,0.007901,0.007901,3162.18,3163.65,94.6065,1.697535,96.304,0.030424,25.0083,23.0147,1.996563,0.295616,0.006839,0.746871,0.001637,636824,14731.8,0.009565,0.000021,0.004870,0.050619,10491.5,0.000648,1.61986e+07,3.87115e+06,0.238980,616112,2.57809e+06,2.65069e+06,5.9995e+06,1.43376e+06,1.66548e+07,6.16844e+06,
7.606028,56.1625,57.7772,1.000001,55,2390,1.02754e+06,21207,5.96535e+07,56663.8,59824.6,0.000052,1.02776e+06,0.020639,0.007724,0.007724,3161.75,3163.22,94.0838,1.697535,95.7813,0.030263,24.4457,22.452,1.996563,0.295875,0.007098,0.746933,0.001699,637383,15290.9,0.009566,0.000022,0.004844,0.050626,10435.9,0.000648,1.61107e+07,3.7765e+06,0.234409,601048,2.5641e+06,2.6336e+06,5.96694e+06,1.3987e+06,1.65474e+07,6.12868e+06,
7.752399,56.8,58.5091,1.000001,55,2390,1.02794e+06,21225.2,5.96544e+07,56661.9,59826.1,0.000052,1.02816e+06,0.020648,0.007734,0.007734,3160.5,3161.97,92.7898,1.697535,94.4873,0.029866,24.4664,22.4727,1.996563,0.295997,0.007219,0.746962,0.001728,637644,15552.1,0.009567,0.000022,0.004781,0.050646,10299,0.000649,1.58931e+07,3.77998e+06,0.237838,601601,2.52946e+06,2.60002e+06,5.88632e+06,1.39999e+06,1.63364e+07,6.05052e+06,
7.880570,57.7875,59.1499,1.000001,55,2390,1.02811e+06,21126.6,5.96557e+07,56665.4,59830.8,0.000052,1.02833e+06,0.020549,0.007635,0.007634,3159.98,3161.45,92.2125,1.697535,93.9101,0.029689,24.1483,22.1545,1.996563,0.296173,0.007395,0.747004,0.001770,638023,15931.2,0.009567,0.000023,0.004752,0.050654,10237.8,0.000649,1.5796e+07,3.72646e+06,0.235912,593085,2.51401e+06,2.58302e+06,5.85036e+06,1.38017e+06,1.62296e+07,6.01096e+06,
8.047218,58.475,59.9832,1.000001,55,2390,1.02841e+06,21178.9,5.96563e+07,56665.4,59830.2,0.000052,1.02863e+06,0.020594,0.007679,0.007679,3159.06,3160.53,91.2614,1.697535,92.9589,0.029397,24.2829,22.2891,1.996563,0.296246,0.007468,0.747022,0.001788,638181,16088.6,0.009567,0.000023,0.004706,0.050669,10137,0.000649,1.5636e+07,3.7491e+06,0.239774,596688,2.48854e+06,2.55908e+06,5.79111e+06,1.38856e+06,1.60792e+07,5.95525e+06,
8.192808,59.1625,60.7111,1.000001,55,2390,1.02877e+06,21143.4,5.96571e+07,56660.8,59829.1,0.000052,1.02898e+06,0.020552,0.007638,0.007638,3157.98,3159.45,90.1408,1.697535,91.8384,0.029052,24.1432,22.1494,1.996563,0.296352,0.007574,0.747047,0.001813,638409,16316.9,0.009568,0.000023,0.004651,0.050687,10018.3,0.000649,1.54475e+07,3.7256e+06,0.241178,592947,2.45855e+06,2.52904e+06,5.7213e+06,1.37985e+06,1.58904e+07,5.88534e+06,
8.343596,59.85,61.4651,1.000001,55,2390,1.02878e+06,21117.6,5.9658e+07,56668.1,59830.8,0.000052,1.029e+06,0.020527,0.007613,0.007612,3157.94,3159.41,90.0621,1.697535,91.7596,0.029028,24.063,22.0692,1.996563,0.296467,0.007690,0.747074,0.001841,638657,16565.3,0.009568,0.000024,0.004647,0.050687,10009.8,0.000649,1.54343e+07,3.7121e+06,0.240511,590799,2.45644e+06,2.52649e+06,5.7164e+06,1.37485e+06,1.58744e+07,5.8794e+06,