File: CSV_DISSERTATION/RMD Files PhD/DMA/fabian's hydrogel_25-100_5c min.csv
Time,Sample Temperature,Program Temperature,Frequency,Raw Dynamic Force,Raw Static Force,In-Phase Angle,Out-Of-Phase Angle,Zero Displacement,Min Displacement,Max Displacement,Spring Stiffness,C*,Measured Tan Delta,Corrected Total Tan Delta,Corrected Total Delta,Stiffness*,Total Stiffness',Stiffness Less Spring,Inertia,Sample Stiffness',Ratio of Sample to Total Stiffness,Total Stiffness'',Sample Stiffness'',Total Applied Static Force,Static Force,Static Force Corrected,Static Displacement,Static Displacement Corrected,Static Stress,Static Stress Corrected,Static Strain,Static Strain Corrected,Dynamic Force,Displacement Amplitude,Dynamic Stress,Dynamic Strain,Storage Modulus,Loss Modulus,Tan Delta,Loss Viscosity,Storage Viscosity,Complex Viscosity,Shear Storage Modulus,Shear Loss Modulus,Complex Modulus,Shear Complex Modulus,
0.000000,22.6625,25,1.000001,58,2390,1.01724e+06,34167.1,5.9631e+07,56656.2,59787.5,0.000052,1.01782e+06,0.033588,0.020667,0.020664,3366.77,3367.82,299.732,1.697535,301.43,0.089458,69.6384,67.6454,1.996563,0.292939,0.002013,0.746230,0.000482,1.25766e+06,8644.08,0.011030,0.000007,0.015101,0.050126,64832.1,0.000741,8.75514e+07,1.96479e+07,0.224415,3.12705e+06,1.39342e+07,1.42808e+07,3.24265e+07,7.27698e+06,8.9729e+07,3.3233e+07,
0.294035,23.55,25,1.000001,58,2390,1.0173e+06,34035.6,5.96329e+07,56659.5,59792,0.000052,1.01787e+06,0.033457,0.020536,0.020533,3366.61,3367.67,299.493,1.697535,301.191,0.089391,69.194,67.201,1.996563,0.293182,0.002256,0.746289,0.000540,1.2587e+06,9687.07,0.011031,0.000008,0.015090,0.050128,64783.7,0.000741,8.7482e+07,1.95188e+07,0.223118,3.10651e+06,1.39232e+07,1.42655e+07,3.24007e+07,7.22918e+06,8.96331e+07,3.31974e+07,
0.552196,24,25,1.000001,58,2390,1.01741e+06,33829,5.9636e+07,56660.4,59792.9,0.000052,1.01798e+06,0.033250,0.020329,0.020326,3366.24,3367.32,299.001,1.697535,300.699,0.089254,68.4902,66.4971,1.996563,0.293584,0.002659,0.746385,0.000636,1.26043e+06,11413.6,0.011032,0.000009,0.015067,0.050134,64684.6,0.000741,8.73391e+07,1.93143e+07,0.221142,3.07397e+06,1.39004e+07,1.42363e+07,3.23478e+07,7.15346e+06,8.94492e+07,3.31294e+07,
0.864694,24.275,25,1.000001,58,2390,1.01761e+06,33686.9,5.96387e+07,56665.6,59797,0.000052,1.01816e+06,0.033104,0.020183,0.020180,3365.62,3366.71,298.265,1.697535,299.963,0.089052,67.9864,65.9932,1.996563,0.293935,0.003009,0.746469,0.000720,1.26193e+06,12918.9,0.011034,0.000011,0.015032,0.050143,64537.9,0.000741,8.71253e+07,1.9168e+07,0.220005,3.05068e+06,1.38664e+07,1.4198e+07,3.22686e+07,7.09925e+06,8.92089e+07,3.30403e+07,
1.139756,24.3,25.7292,1.000001,58,2390,1.01768e+06,33744.9,5.96411e+07,56665.9,59799.6,0.000052,1.01824e+06,0.033158,0.020237,0.020235,3365.36,3366.44,297.882,1.697535,299.579,0.088945,68.1642,66.1709,1.996563,0.294252,0.003327,0.746545,0.000796,1.2633e+06,14282.1,0.011035,0.000012,0.015014,0.050147,64460.6,0.000741,8.70139e+07,1.92196e+07,0.220880,3.05889e+06,1.38487e+07,1.41825e+07,3.22274e+07,7.11837e+06,8.91112e+07,3.30042e+07,
1.415336,24.3,27.1072,1.000001,58,2390,1.01776e+06,33644.5,5.96426e+07,56668.1,59800.8,0.000052,1.01832e+06,0.033057,0.020136,0.020134,3365.12,3366.21,297.577,1.697535,299.275,0.088861,67.8192,65.8259,1.996563,0.294453,0.003527,0.746593,0.000844,1.26416e+06,15142.9,0.011036,0.000012,0.015000,0.050151,64399.5,0.000741,8.69255e+07,1.91194e+07,0.219951,3.04294e+06,1.38346e+07,1.41653e+07,3.21946e+07,7.08125e+06,8.90033e+07,3.29642e+07,
1.693778,25.225,28.4994,1.000001,58,2390,1.01805e+06,33596.1,5.96436e+07,56669.1,59805.5,0.000052,1.01861e+06,0.033000,0.020079,0.020077,3364.16,3365.25,296.572,1.697535,298.27,0.088588,67.6081,65.6147,1.996563,0.294588,0.003662,0.746625,0.000877,1.26474e+06,15721.3,0.011036,0.000013,0.014954,0.050165,64201.5,0.000742,8.66336e+07,1.9058e+07,0.219985,3.03318e+06,1.37882e+07,1.41178e+07,3.20865e+07,7.05854e+06,8.87051e+07,3.28537e+07,
1.985997,26.9125,29.9605,1.000001,58,2390,1.01917e+06,33241.9,5.96453e+07,56666.8,59805.6,0.000052,1.01972e+06,0.032617,0.019696,0.019693,3360.5,3361.62,292.864,1.697535,294.561,0.087581,66.2449,64.2515,1.996563,0.294800,0.003874,0.746676,0.000927,1.26565e+06,16633.2,0.011037,0.000014,0.014784,0.050220,63471.8,0.000742,8.55564e+07,1.86621e+07,0.218126,2.97016e+06,1.36167e+07,1.39369e+07,3.16876e+07,6.91188e+06,8.75681e+07,3.24326e+07,
2.276917,28.7,31.4151,1.000001,58,2390,1.02048e+06,33123.9,5.96465e+07,56667.8,59809.6,0.000052,1.02101e+06,0.032459,0.019539,0.019536,3356.22,3357.35,288.537,1.697535,290.235,0.086404,65.6327,63.6392,1.996563,0.294959,0.004034,0.746714,0.000965,1.26633e+06,17317.1,0.011037,0.000014,0.014585,0.050284,62619,0.000743,8.42999e+07,1.84843e+07,0.219268,2.94186e+06,1.34167e+07,1.37355e+07,3.12222e+07,6.84602e+06,8.63026e+07,3.19639e+07,
2.538978,30.175,32.7254,1.000001,58,2390,1.02197e+06,32929.6,5.96481e+07,56666.9,59813.4,0.000052,1.0225e+06,0.032222,0.019301,0.019299,3351.36,3352.49,283.603,1.697535,285.3,0.085058,64.7418,62.7483,1.996563,0.295175,0.004249,0.746765,0.001017,1.26726e+06,18241.9,0.011038,0.000015,0.014358,0.050358,61643.5,0.000744,8.28666e+07,1.82255e+07,0.219938,2.90067e+06,1.31886e+07,1.35038e+07,3.06913e+07,6.75018e+06,8.48472e+07,3.14249e+07,
2.797921,31.4625,34.0201,1.000001,58,2390,1.02358e+06,32777.9,5.96498e+07,56667.2,59816.2,0.000052,1.0241e+06,0.032023,0.019103,0.019100,3346.1,3347.25,278.282,1.697535,279.979,0.083602,63.9747,61.9811,1.996563,0.295395,0.004469,0.746818,0.001070,1.2682e+06,19187,0.011039,0.000016,0.014113,0.050437,60588.6,0.000746,8.13211e+07,1.80027e+07,0.221377,2.86521e+06,1.29426e+07,1.3256e+07,3.01189e+07,6.66765e+06,8.329e+07,3.08481e+07,
3.074282,32.9125,35.4019,1.000001,58,2390,1.02531e+06,32638,5.96516e+07,56668.2,59820.8,0.000052,1.02583e+06,0.031832,0.018912,0.018910,3340.48,3341.63,272.58,1.697535,274.277,0.082037,63.2309,61.2373,1.996563,0.295628,0.004702,0.746874,0.001125,1.2692e+06,20186.2,0.011040,0.000017,0.013848,0.050522,59454.3,0.000747,7.96648e+07,1.77866e+07,0.223268,2.83082e+06,1.2679e+07,1.29912e+07,2.95055e+07,6.58763e+06,8.16263e+07,3.02319e+07,
3.369361,34.6,36.8773,1.000001,58,2390,1.02712e+06,32350.4,5.96538e+07,56666.2,59823.6,0.000052,1.02763e+06,0.031496,0.018576,0.018574,3334.61,3335.77,266.62,1.697535,268.317,0.080395,61.9983,60.0046,1.996563,0.295919,0.004993,0.746943,0.001195,1.27045e+06,21437.5,0.011041,0.000018,0.013571,0.050611,58264.5,0.000748,7.79338e+07,1.74286e+07,0.223633,2.77384e+06,1.24035e+07,1.27099e+07,2.88644e+07,6.45502e+06,7.98588e+07,2.95773e+07,
3.628302,35.9,38.172,1.000001,58,2390,1.0289e+06,32181.5,5.96559e+07,56662.1,59826.8,0.000052,1.0294e+06,0.031278,0.018358,0.018356,3328.87,3330.04,260.796,1.697535,262.494,0.078786,61.1641,59.1704,1.996563,0.296189,0.005263,0.747008,0.001260,1.27161e+06,22595.4,0.011042,0.000019,0.013299,0.050699,57097.9,0.000749,7.62424e+07,1.71863e+07,0.225416,2.73528e+06,1.21343e+07,1.24388e+07,2.82379e+07,6.36528e+06,7.81554e+07,2.89464e+07,
3.922601,37.475,39.6435,1.000001,58,2390,1.03097e+06,32021.1,5.96583e+07,56661.8,59837,0.000052,1.03147e+06,0.031059,0.018140,0.018138,3322.21,3323.39,254.031,1.697535,255.728,0.076909,60.3164,58.3226,1.996563,0.296512,0.005586,0.747085,0.001337,1.273e+06,23981.3,0.011043,0.000020,0.012983,0.050801,55737.5,0.000751,7.42772e+07,1.694e+07,0.228065,2.69609e+06,1.18216e+07,1.21251e+07,2.75101e+07,6.27408e+06,7.61844e+07,2.82165e+07,
4.203122,38.9125,41.0461,1.000001,58,2390,1.03291e+06,31767.5,5.96613e+07,56662.9,59840,0.000052,1.0334e+06,0.030755,0.017836,0.017834,3316.01,3317.2,247.704,1.697535,249.401,0.075146,59.1964,57.2024,1.996563,0.296901,0.005975,0.747178,0.001430,1.27467e+06,25651.1,0.011044,0.000021,0.012685,0.050896,54459.9,0.000752,7.24396e+07,1.66147e+07,0.229359,2.6443e+06,1.15291e+07,1.18285e+07,2.68295e+07,6.15358e+06,7.43205e+07,2.75261e+07,
4.460766,40.2,42.3343,1.000001,58,2390,1.03456e+06,31684.6,5.9664e+07,56660,59846.8,0.000052,1.03504e+06,0.030626,0.017707,0.017705,3310.74,3311.94,242.309,1.697535,244.007,0.073637,58.6748,56.6808,1.996563,0.297258,0.006333,0.747264,0.001515,1.2762e+06,27187.5,0.011045,0.000022,0.012430,0.050977,53366.6,0.000754,7.08727e+07,1.64631e+07,0.232292,2.62019e+06,1.12797e+07,1.158e+07,2.62491e+07,6.09746e+06,7.27597e+07,2.6948e+07,
4.718667,41.5125,43.6238,1.000001,56,2390,1.00059e+06,30272.6,5.96673e+07,56719,59798.6,0.000052,1.00105e+06,0.030255,0.017336,0.017334,3305.11,3306.32,236.544,1.697535,238.241,0.072019,57.3466,55.3525,1.996563,0.297690,0.006764,0.747367,0.001619,1.27805e+06,29039.3,0.011047,0.000024,0.011738,0.049304,50394.2,0.000729,6.91981e+07,1.60774e+07,0.232338,2.55879e+06,1.10132e+07,1.13066e+07,2.56289e+07,5.95457e+06,7.10412e+07,2.63116e+07,
5.009847,42.9625,45.0797,1.000001,56,2390,1.00238e+06,30115.8,5.96703e+07,56719.1,59802.9,0.000052,1.00283e+06,0.030044,0.017125,0.017124,3299.24,3300.46,230.543,1.697535,232.241,0.070330,56.5505,54.5563,1.996563,0.298079,0.007154,0.747460,0.001712,1.27973e+06,30712.1,0.011048,0.000025,0.011463,0.049392,49212.2,0.000730,6.74553e+07,1.58461e+07,0.234913,2.52198e+06,1.07358e+07,1.10281e+07,2.49834e+07,5.86892e+06,6.92915e+07,2.56635e+07,
5.284908,44.4875,46.455,1.000001,56,2390,1.00459e+06,30075.2,5.96737e+07,56718.8,59811.4,0.000052,1.00504e+06,0.029938,0.017019,0.017017,3291.99,3293.21,223.132,1.697535,224.83,0.068236,56.0757,54.0814,1.996563,0.298528,0.007602,0.747567,0.001819,1.28165e+06,32639.3,0.011050,0.000027,0.011121,0.049501,47746.6,0.000732,6.53027e+07,1.57082e+07,0.240544,2.50003e+06,1.03932e+07,1.06897e+07,2.41862e+07,5.81783e+06,6.71654e+07,2.48761e+07,
5.543330,45.75,47.7471,1.000001,56,2390,1.00659e+06,29941.8,5.9677e+07,56722.4,59816,0.000052,1.00704e+06,0.029746,0.016827,0.016825,3285.46,3286.68,216.451,1.697535,218.148,0.066339,55.3328,53.3384,1.996563,0.298961,0.008035,0.747671,0.001922,1.28351e+06,34496,0.011051,0.000028,0.010812,0.049599,46419.6,0.000733,6.3362e+07,1.54924e+07,0.244506,2.46568e+06,1.00844e+07,1.03814e+07,2.34674e+07,5.73791e+06,6.52285e+07,2.41587e+07,
5.803311,46.9,49.047,1.000001,56,2390,1.00854e+06,29700,5.96803e+07,56719.6,59822.4,0.000052,1.00898e+06,0.029448,0.016530,0.016528,3279.14,3280.37,209.986,1.697535,211.683,0.064497,54.2516,52.2572,1.996563,0.299390,0.008465,0.747773,0.002025,1.28536e+06,36340.5,0.011053,0.000030,0.010512,0.049695,45130.6,0.000735,6.14842e+07,1.51783e+07,0.246865,2.4157e+06,9.7855e+06,1.00793e+07,2.27719e+07,5.62159e+06,6.333e+07,2.34555e+07,
6.064334,48.3125,50.3521,1.000001,56,2390,1.01076e+06,29580.8,5.96835e+07,56720.9,59828.4,0.000052,1.01119e+06,0.029266,0.016347,0.016346,3271.97,3273.21,202.674,1.697535,204.371,0.062405,53.5359,51.5413,1.996563,0.299814,0.008889,0.747875,0.002126,1.28718e+06,38160.9,0.011054,0.000031,0.010171,0.049804,43667,0.000736,5.93604e+07,1.49704e+07,0.252195,2.38261e+06,9.4475e+06,9.74331e+06,2.19853e+07,5.54458e+06,6.1219e+07,2.26737e+07,
6.323274,49.6875,51.6468,1.000001,56,2390,1.01266e+06,29331.6,5.96874e+07,56723.2,59835.6,0.000052,1.01308e+06,0.028965,0.016047,0.016045,3265.86,3267.11,196.391,1.697535,198.088,0.060600,52.4529,50.4582,1.996563,0.300321,0.009395,0.747996,0.002247,1.28935e+06,40336.4,0.011056,0.000033,0.009877,0.049898,42403.5,0.000738,5.75354e+07,1.46558e+07,0.254726,2.33254e+06,9.15704e+06,9.44945e+06,2.13094e+07,5.42806e+06,5.93727e+07,2.19899e+07,
6.607436,51.225,53.0676,1.000001,56,2390,1.01556e+06,28949.4,5.9701e+07,56730.4,59854.6,0.000052,1.01598e+06,0.028506,0.015588,0.015586,3256.56,3257.83,186.472,1.697535,188.17,0.057729,50.8078,48.8126,1.996563,0.302106,0.011181,0.748422,0.002674,1.29702e+06,48001.5,0.011063,0.000040,0.009409,0.050041,40395,0.000740,5.46546e+07,1.41778e+07,0.259408,2.25647e+06,8.69854e+06,8.98645e+06,2.02424e+07,5.25104e+06,5.64636e+07,2.09124e+07,
6.915774,52.5625,54.6093,1.000001,56,2390,1.01734e+06,28648.8,5.97033e+07,56729.6,59859.6,0.000052,1.01774e+06,0.028160,0.015243,0.015241,3250.91,3252.19,180.727,1.697535,182.425,0.056064,49.5971,47.6019,1.996563,0.302408,0.011482,0.748494,0.002746,1.29831e+06,49296.5,0.011064,0.000041,0.009138,0.050128,39229.6,0.000741,5.2986e+07,1.38262e+07,0.260940,2.2005e+06,8.43298e+06,8.71535e+06,1.96244e+07,5.1208e+06,5.47602e+07,2.02816e+07,
7.178095,53.95,55.9209,1.000001,56,2390,1.01881e+06,28527.4,5.9704e+07,56726,59864.2,0.000052,1.0192e+06,0.028001,0.015083,0.015082,3246.25,3247.53,176.035,1.697535,177.732,0.054700,49.0074,47.0122,1.996563,0.302493,0.011567,0.748514,0.002766,1.29867e+06,49659.1,0.011064,0.000041,0.008915,0.050200,38275.4,0.000742,5.1623e+07,1.36549e+07,0.264511,2.17324e+06,8.21605e+06,8.49862e+06,1.91196e+07,5.05736e+06,5.33984e+07,1.97772e+07,
7.435218,55.375,57.2066,1.000001,56,2390,1.01988e+06,28276.4,5.97074e+07,56728.2,59866.9,0.000052,1.02027e+06,0.027725,0.014808,0.014806,3242.85,3244.14,172.486,1.697535,174.184,0.053664,48.0622,46.0669,1.996563,0.302948,0.012022,0.748623,0.002875,1.30063e+06,51615.5,0.011066,0.000042,0.008746,0.050253,37550.3,0.000743,5.05923e+07,1.33803e+07,0.264473,2.12954e+06,8.05201e+06,8.32885e+06,1.87379e+07,4.95567e+06,5.23318e+07,1.93821e+07,
7.698580,56.5,58.5234,1.000001,56,2390,1.0207e+06,28224.2,5.97109e+07,56731.4,59871.4,0.000052,1.02109e+06,0.027652,0.014734,0.014733,3240.25,3241.55,169.729,1.697535,171.427,0.052857,47.7861,45.7907,1.996563,0.303405,0.012480,0.748732,0.002984,1.30259e+06,53578.4,0.011067,0.000044,0.008615,0.050293,36985.5,0.000743,4.97916e+07,1.33001e+07,0.267115,2.11677e+06,7.92457e+06,8.20241e+06,1.84413e+07,4.92595e+06,5.15373e+07,1.90879e+07,
7.963759,57.9125,59.8493,1.000001,56,2390,1.02118e+06,28204.5,5.97142e+07,56733.1,59876.6,0.000052,1.02157e+06,0.027620,0.014702,0.014701,3238.73,3240.03,168.056,1.697535,169.754,0.052365,47.6589,45.6634,1.996563,0.303837,0.012912,0.748836,0.003087,1.30445e+06,55433.1,0.011069,0.000046,0.008535,0.050317,36641.7,0.000744,4.93057e+07,1.32631e+07,0.268998,2.11089e+06,7.84723e+06,8.12619e+06,1.82614e+07,4.91226e+06,5.10584e+07,1.89105e+07,
8.224001,59.15,61.1505,1.000001,56,2390,1.02181e+06,28177.9,5.97144e+07,56732,59875.8,0.000052,1.0222e+06,0.027576,0.014659,0.014658,3236.73,3238.02,166.041,1.697535,167.739,0.051776,47.4896,45.4941,1.996563,0.303869,0.012943,0.748843,0.003095,1.30458e+06,55567.2,0.011069,0.000046,0.008439,0.050348,36229.1,0.000744,4.87203e+07,1.32139e+07,0.271220,2.10306e+06,7.75407e+06,8.03421e+06,1.80446e+07,4.89405e+06,5.04804e+07,1.86965e+07,
8.480605,60.6,62.4335,1.000001,56,2390,1.02265e+06,28014,5.97156e+07,56731.8,59878,0.000052,1.02303e+06,0.027394,0.014476,0.014475,3234.1,3235.4,163.365,1.697535,165.063,0.050991,46.8597,44.8642,1.996563,0.304015,0.013089,0.748878,0.003130,1.30521e+06,56195.7,0.011069,0.000046,0.008311,0.050389,35680,0.000745,4.7943e+07,1.3031e+07,0.271801,2.07394e+06,7.63037e+06,7.90719e+06,1.77567e+07,4.82629e+06,4.96824e+07,1.84009e+07,
8.740586,61.725,63.7334,1.000001,56,2390,1.02279e+06,28357.9,5.97153e+07,56733.5,59880.4,0.000052,1.02318e+06,0.027726,0.014808,0.014807,3233.62,3234.9,162.88,1.697535,164.578,0.050849,47.9277,45.9322,1.996563,0.303982,0.013056,0.748870,0.003122,1.30507e+06,56051.8,0.011069,0.000046,0.008288,0.050396,35580.7,0.000745,4.78022e+07,1.33412e+07,0.279091,2.12331e+06,7.60795e+06,7.8987e+06,1.77045e+07,4.94118e+06,4.9629e+07,1.83811e+07,
9.017986,63.275,65.1204,1.000001,56,2390,1.02361e+06,28538.5,5.9716e+07,56734.5,59880.2,0.000052,1.02401e+06,0.027880,0.014963,0.014961,3231.02,3232.29,160.242,1.697535,161.94,0.050074,48.3878,46.3923,1.996563,0.304067,0.013142,0.748890,0.003142,1.30543e+06,56419.8,0.011069,0.000046,0.008161,0.050437,35038.6,0.000746,4.7036e+07,1.34748e+07,0.286478,2.14458e+06,7.48601e+06,7.78714e+06,1.74208e+07,4.99067e+06,4.89281e+07,1.81215e+07,
9.277187,64.5,66.4164,1.000001,56,2390,1.02449e+06,28407.6,5.97214e+07,56736.5,59889.4,0.000052,1.02488e+06,0.027729,0.014811,0.014810,3228.27,3229.55,157.244,1.697535,158.941,0.049189,47.8572,45.8614,1.996563,0.304780,0.013854,0.749061,0.003312,1.30849e+06,59479.6,0.011072,0.000049,0.008017,0.050480,34419.1,0.000746,4.61651e+07,1.33206e+07,0.288543,2.12004e+06,7.3474e+06,7.64715e+06,1.70982e+07,4.93357e+06,4.80485e+07,1.77957e+07,
9.535612,65.8,67.7085,1.000001,56,2390,1.02495e+06,28292.8,5.9728e+07,56740.5,59896.6,0.000052,1.02534e+06,0.027604,0.014686,0.014685,3226.81,3228.09,155.475,1.697535,157.173,0.048664,47.4329,45.437,1.996563,0.305650,0.014724,0.749268,0.003520,1.31223e+06,63215.2,0.011075,0.000052,0.007931,0.050503,34051.5,0.000746,4.56515e+07,1.31973e+07,0.289089,2.10042e+06,7.26565e+06,7.56316e+06,1.6908e+07,4.8879e+06,4.75208e+07,1.76003e+07,
9.797931,66.9875,69.0201,1.000001,56,2390,1.02552e+06,28081.4,5.97365e+07,56746.6,59907.4,0.000052,1.0259e+06,0.027383,0.014465,0.014464,3225.05,3226.34,153.326,1.697535,155.024,0.048024,46.693,44.6968,1.996563,0.306766,0.015840,0.749534,0.003786,1.31702e+06,68004.6,0.011079,0.000056,0.007827,0.050531,33604.1,0.000747,4.50272e+07,1.29824e+07,0.288323,2.06621e+06,7.1663e+06,7.45822e+06,1.66767e+07,4.80828e+06,4.68614e+07,1.73561e+07,
10.0553,68.3375,70.307,1.000001,56,2390,1.02625e+06,28202.8,5.97424e+07,56753.8,59908.6,0.000052,1.02664e+06,0.027481,0.014564,0.014563,3222.74,3224.02,150.736,1.697535,152.434,0.047256,46.9779,44.9815,1.996563,0.307539,0.016613,0.749719,0.003971,1.32034e+06,71324.4,0.011082,0.000059,0.007702,0.050567,33066.4,0.000747,4.4275e+07,1.3065e+07,0.295089,2.07937e+06,7.04657e+06,7.34697e+06,1.63981e+07,4.83891e+06,4.61624e+07,1.70972e+07,
10.3135,69.75,71.5979,1.000001,56,2390,1.02664e+06,28213.5,5.97489e+07,56760.6,59915.1,0.000052,1.02703e+06,0.027481,0.014564,0.014563,3221.51,3222.79,149.201,1.697535,150.898,0.046798,46.9599,44.9633,1.996563,0.308397,0.017471,0.749923,0.004175,1.32402e+06,75007,0.011085,0.000062,0.007627,0.050586,32745.8,0.000748,4.3829e+07,1.30598e+07,0.297971,2.07853e+06,6.97559e+06,7.27868e+06,1.62329e+07,4.83695e+06,4.57333e+07,1.69383e+07,
10.5888,71.0125,72.9745,1.000001,56,2390,1.02774e+06,27967.6,5.97573e+07,56761.9,59976.5,0.000052,1.02812e+06,0.027213,0.014295,0.014294,3218.1,3219.4,145.412,1.697535,147.109,0.045671,46.046,44.0492,1.996563,0.309496,0.018571,0.750186,0.004437,1.32874e+06,79728,0.011089,0.000066,0.007444,0.050640,31957.2,0.000749,4.27285e+07,1.27942e+07,0.299432,2.03627e+06,6.80044e+06,7.09876e+06,1.58254e+07,4.73861e+06,4.46028e+07,1.65196e+07,
10.8522,72.375,74.2913,1.000001,56,2390,1.02786e+06,27914.6,5.97636e+07,56769.6,59932.1,0.000052,1.02824e+06,0.027158,0.014241,0.014240,3217.71,3219,144.727,1.697535,146.424,0.045463,45.8635,43.8665,1.996563,0.310319,0.019393,0.750382,0.004634,1.33228e+06,83260.9,0.011092,0.000068,0.007410,0.050646,31812.2,0.000749,4.25294e+07,1.27412e+07,0.299585,2.02782e+06,6.76876e+06,7.06599e+06,1.57516e+07,4.71896e+06,4.4397e+07,1.64433e+07,
11.1262,73.7,75.6614,1.000001,56,2390,1.02812e+06,27792.2,5.97708e+07,56779.8,59942.2,0.000052,1.02849e+06,0.027032,0.014115,0.014114,3216.93,3218.23,143.611,1.697535,145.308,0.045128,45.4479,43.4506,1.996563,0.311271,0.020345,0.750609,0.004860,1.33636e+06,87345.8,0.011095,0.000072,0.007355,0.050659,31577.4,0.000749,4.22053e+07,1.26204e+07,0.299024,2.0086e+06,6.71718e+06,7.01106e+06,1.56316e+07,4.67422e+06,4.40519e+07,1.63155e+07,
11.402,75.1625,77.0406,1.000001,56,2390,1.02858e+06,27696.6,5.97794e+07,56788.5,59949,0.000052,1.02895e+06,0.026927,0.014010,0.014009,3215.49,3216.79,141.774,1.697535,143.472,0.044577,45.0894,43.0919,1.996563,0.312400,0.021474,0.750878,0.005129,1.34121e+06,92195,0.011099,0.000076,0.007265,0.050681,31192.2,0.000749,4.16719e+07,1.25162e+07,0.300351,1.99202e+06,6.63229e+06,6.92498e+06,1.5434e+07,4.63564e+06,4.3511e+07,1.61152e+07,
11.6724,76.3625,78.3925,1.000001,56,2390,1.02872e+06,27526.6,5.97851e+07,56792.4,59958.1,0.000052,1.02908e+06,0.026758,0.013841,0.013840,3215.08,3216.39,141.108,1.697535,142.805,0.044376,44.5409,42.5433,1.996563,0.313148,0.022222,0.751056,0.005308,1.34442e+06,95406.4,0.011101,0.000078,0.007233,0.050688,31051.2,0.000749,4.14783e+07,1.23569e+07,0.297911,1.96665e+06,6.60147e+06,6.88819e+06,1.53623e+07,4.57661e+06,4.32798e+07,1.60296e+07,
11.9519,77.9,79.7899,1.000001,56,2390,1.029e+06,27571.9,5.97905e+07,56793,59959.6,0.000052,1.02937e+06,0.026795,0.013878,0.013877,3214.2,3215.5,139.965,1.697535,141.663,0.044033,44.6464,42.6486,1.996563,0.313860,0.022935,0.751226,0.005477,1.34748e+06,98463.4,0.011104,0.000081,0.007177,0.050702,30811.2,0.000749,4.11464e+07,1.23874e+07,0.301057,1.97152e+06,6.54865e+06,6.83899e+06,1.52394e+07,4.58794e+06,4.29707e+07,1.59151e+07,
12.2111,79.15,81.0859,1.000001,56,2390,1.02949e+06,27576.1,5.97943e+07,56801.9,59965.5,0.000052,1.02986e+06,0.026786,0.013869,0.013868,3212.67,3213.98,138.262,1.697535,139.96,0.043524,44.5977,42.5997,1.996563,0.314362,0.023437,0.751345,0.005597,1.34963e+06,100619,0.011106,0.000083,0.007094,0.050726,30455.3,0.000750,4.06519e+07,1.23733e+07,0.304371,1.96926e+06,6.46994e+06,6.763e+06,1.50563e+07,4.58269e+06,4.24932e+07,1.57382e+07,
12.4737,80.5875,82.3988,1.000001,56,2390,1.03038e+06,27599,5.97978e+07,56802.4,59971.2,0.000052,1.03075e+06,0.026785,0.013868,0.013867,3209.9,3211.2,135.324,1.697535,137.021,0.042647,44.5562,42.5581,1.996563,0.314821,0.023895,0.751454,0.005706,1.3516e+06,102589,0.011107,0.000084,0.006951,0.050770,29841.6,0.000750,3.97983e+07,1.23612e+07,0.310596,1.96734e+06,6.33409e+06,6.63258e+06,1.47401e+07,4.57821e+06,4.16738e+07,1.54347e+07,
12.7308,81.7375,83.6844,1.000001,56,2390,1.03094e+06,27759.2,5.97991e+07,56805,59972,0.000052,1.03131e+06,0.026926,0.014009,0.014008,3208.14,3209.44,133.498,1.697535,135.195,0.042102,44.9838,42.9857,1.996563,0.314994,0.024068,0.751496,0.005747,1.35235e+06,103331,0.011108,0.000085,0.006862,0.050797,29460.1,0.000751,3.92679e+07,1.24854e+07,0.317953,1.98711e+06,6.24968e+06,6.55798e+06,1.45437e+07,4.62421e+06,4.1205e+07,1.52611e+07,
13.0061,83.325,85.061,1.000001,56,2390,1.03065e+06,27688.2,5.97979e+07,56806.1,59973.5,0.000052,1.03102e+06,0.026865,0.013948,0.013947,3209.03,3210.33,134.449,1.697535,136.146,0.042386,44.799,42.801,1.996563,0.314831,0.023905,0.751457,0.005708,1.35164e+06,102630,0.011107,0.000084,0.006908,0.050783,29659.1,0.000751,3.95442e+07,1.24317e+07,0.314375,1.97857e+06,6.29365e+06,6.59733e+06,1.4646e+07,4.60434e+06,4.14522e+07,1.53527e+07,
13.2637,84.7,86.3492,1.000001,56,2390,1.0305e+06,27811,5.97961e+07,56799.9,59972.5,0.000052,1.03088e+06,0.026988,0.014071,0.014070,3209.49,3210.79,134.988,1.697535,136.685,0.042548,45.2006,43.2026,1.996563,0.314599,0.023674,0.751402,0.005653,1.35065e+06,101637,0.011107,0.000084,0.006935,0.050776,29772.3,0.000751,3.97008e+07,1.25483e+07,0.316073,1.99713e+06,6.31857e+06,6.62668e+06,1.4704e+07,4.64754e+06,4.16367e+07,1.5421e+07,
13.5445,85.9625,87.7531,1.000001,56,2390,1.03065e+06,28122.8,5.97939e+07,56797.5,59969.6,0.000052,1.03103e+06,0.027287,0.014369,0.014368,3209.01,3210.29,134.593,1.697535,136.291,0.042432,46.1522,44.1543,1.996563,0.314312,0.023386,0.751333,0.005585,1.34942e+06,100404,0.011106,0.000083,0.006916,0.050783,29690.9,0.000751,3.95861e+07,1.28248e+07,0.323972,2.04113e+06,6.30032e+06,6.62271e+06,1.46615e+07,4.74992e+06,4.16117e+07,1.54118e+07,
13.8066,87.1875,89.0634,1.000001,56,2390,1.0335e+06,27902,5.97935e+07,56796.2,59975.1,0.000052,1.03388e+06,0.026998,0.014080,0.014079,3200.17,3201.46,125.776,1.697535,127.473,0.039796,45.1,43.1021,1.996563,0.314262,0.023336,0.751321,0.005573,1.3492e+06,100188,0.011105,0.000082,0.006486,0.050924,27846.7,0.000753,3.70251e+07,1.25192e+07,0.338127,1.99249e+06,5.89272e+06,6.22046e+06,1.3713e+07,4.63673e+06,3.90843e+07,1.44757e+07,
14.0848,88.65,90.4543,1.000001,54,2390,999454,25839.6,5.97932e+07,56852.9,59927.6,0.000052,999788,0.025854,0.012937,0.012936,3191.1,3192.43,116.764,1.697535,118.461,0.037087,41.3214,39.3234,1.996563,0.314213,0.023287,0.751310,0.005561,1.34899e+06,99977.9,0.011105,0.000082,0.005829,0.049246,25024.4,0.000728,3.44076e+07,1.14216e+07,0.331952,1.81781e+06,5.47613e+06,5.76996e+06,1.27435e+07,4.23024e+06,3.62538e+07,1.34273e+07,
14.3427,89.9,91.7438,1.000001,54,2390,1.0034e+06,24647.9,5.97907e+07,56843,59929.4,0.000052,1.0037e+06,0.024564,0.011648,0.011648,3178.66,3180.03,104.479,1.697535,106.176,0.033371,37.0606,35.0628,1.996563,0.313890,0.022965,0.751233,0.005484,1.34761e+06,98592.2,0.011104,0.000081,0.005245,0.049439,22516.6,0.000731,3.08393e+07,1.01841e+07,0.330232,1.62085e+06,4.90823e+06,5.16893e+06,1.1422e+07,3.7719e+06,3.24774e+07,1.20287e+07,
14.6175,91.1,93.1179,1.000001,54,2390,1.00567e+06,23385.5,5.97875e+07,56833.6,59927.2,0.000052,1.00594e+06,0.023254,0.010338,0.010338,3171.59,3173,97.5978,1.697535,99.2953,0.031277,32.8197,30.8219,1.996563,0.313466,0.022541,0.751132,0.005383,1.34579e+06,96772.4,0.011103,0.000080,0.004916,0.049550,21104,0.000732,2.88407e+07,8.95235e+06,0.310407,1.42481e+06,4.59014e+06,4.80619e+06,1.06817e+07,3.31568e+06,3.01982e+07,1.11845e+07,
14.8769,92.325,94.4152,1.000001,54,2390,1.01079e+06,22387.1,5.97829e+07,56825.5,59935.5,0.000052,1.01103e+06,0.022148,0.009233,0.009233,3155.61,3157.03,81.8514,1.697535,83.549,0.026450,29.1642,27.1666,1.996563,0.312857,0.021931,0.750987,0.005238,1.34317e+06,94155.2,0.011100,0.000077,0.004157,0.049802,17847.1,0.000736,2.42671e+07,7.89063e+06,0.325157,1.25583e+06,3.86223e+06,4.06127e+06,8.98782e+06,2.92246e+06,2.55177e+07,9.45102e+06,
15.1398,93.7625,95.7294,1.000001,54,2390,1.01493e+06,21113.8,5.97771e+07,56811,59930,0.000052,1.01515e+06,0.020803,0.007889,0.007888,3142.8,3144.25,69.3344,1.697535,71.032,0.022579,24.816,22.8185,1.996563,0.312103,0.021177,0.750807,0.005059,1.33993e+06,90918.9,0.011098,0.000075,0.003549,0.050005,15234.9,0.000739,2.06315e+07,6.62774e+06,0.321243,1.05484e+06,3.2836e+06,3.44887e+06,7.6413e+06,2.45472e+06,2.16699e+07,8.0259e+06,
15.4109,95.1125,97.0852,1.000001,54,2390,1.01593e+06,20612.8,5.97739e+07,56804,59926.2,0.000052,1.01614e+06,0.020290,0.007375,0.007375,3139.76,3141.21,66.4515,1.697535,68.149,0.021683,23.1788,21.1815,1.996563,0.311683,0.020757,0.750707,0.004959,1.33813e+06,89116.8,0.011096,0.000073,0.003408,0.050054,14630.7,0.000740,1.97941e+07,6.15224e+06,0.310811,979159,3.15033e+06,3.29899e+06,7.33116e+06,2.27861e+06,2.07282e+07,7.67711e+06,
15.6725,96.1875,98.3929,1.000001,54,2390,1.01852e+06,18383.9,5.97724e+07,56796.2,59919.4,0.000052,1.01869e+06,0.018050,0.005136,0.005136,3131.9,3133.39,58.6972,1.697535,60.3947,0.019264,16.1011,14.1038,1.996563,0.311486,0.020561,0.750660,0.004912,1.33729e+06,88271.5,0.011096,0.000073,0.003028,0.050181,12998.3,0.000742,1.75419e+07,4.09651e+06,0.233527,651979,2.79188e+06,2.86699e+06,6.49699e+06,1.51722e+06,1.80139e+07,6.6718e+06,
15.9299,97.5875,99.6798,1.000001,54,2390,1.0139e+06,19023,5.97678e+07,56794,59901.4,0.000052,1.01407e+06,0.018762,0.005849,0.005848,3146.15,3147.64,73.1677,1.697535,74.8652,0.023772,18.4182,16.4211,1.996563,0.310876,0.019951,0.750515,0.004766,1.33467e+06,85652.9,0.011093,0.000070,0.003736,0.049953,16039.8,0.000738,2.17449e+07,4.76957e+06,0.219342,759100,3.4608e+06,3.54308e+06,8.05366e+06,1.76651e+06,2.22618e+07,8.24512e+06,
16.1883,98.8125,100.972,1.000001,54,2390,1.0096e+06,19739.6,5.97634e+07,56795.5,59887.8,0.000052,1.00979e+06,0.019552,0.006638,0.006638,3159.48,3160.98,86.7065,1.697535,88.404,0.027952,20.9927,18.9957,1.996563,0.310302,0.019376,0.750378,0.004629,1.3322e+06,83185.6,0.011091,0.000068,0.004393,0.049742,18860.6,0.000735,2.56773e+07,5.51738e+06,0.214874,878117,4.08666e+06,4.17994e+06,9.51011e+06,2.04347e+06,2.62634e+07,9.72717e+06,
16.3222,99.5125,101.641,1.000001,54,2390,1.00729e+06,20321.6,5.97613e+07,56792.6,59882.9,0.000052,1.00749e+06,0.020175,0.007260,0.007260,3166.7,3168.18,94.0126,1.697535,95.7101,0.030194,23.0136,21.0166,1.996563,0.310018,0.019093,0.750310,0.004562,1.33098e+06,81969,0.011090,0.000067,0.004745,0.049628,20372.9,0.000734,2.77994e+07,6.10437e+06,0.219586,971539,4.4244e+06,4.52982e+06,1.02961e+07,2.26088e+06,2.84617e+07,1.05414e+07,