File: CSV_DISSERTATION/RMD Files PhD/DMA/fabian's hydrogel_25-60_2c min.csv
Time,Sample Temperature,Program Temperature,Frequency,Raw Dynamic Force,Raw Static Force,In-Phase Angle,Out-Of-Phase Angle,Zero Displacement,Min Displacement,Max Displacement,Spring Stiffness,C*,Measured Tan Delta,Corrected Total Tan Delta,Corrected Total Delta,Stiffness*,Total Stiffness',Stiffness Less Spring,Inertia,Sample Stiffness',Ratio of Sample to Total Stiffness,Total Stiffness'',Sample Stiffness'',Total Applied Static Force,Static Force,Static Force Corrected,Static Displacement,Static Displacement Corrected,Static Stress,Static Stress Corrected,Static Strain,Static Strain Corrected,Dynamic Force,Displacement Amplitude,Dynamic Stress,Dynamic Strain,Storage Modulus,Loss Modulus,Tan Delta,Loss Viscosity,Storage Viscosity,Complex Viscosity,Shear Storage Modulus,Shear Loss Modulus,Complex Modulus,Shear Complex Modulus,
0.000000,25.4,25,1.000001,63,2390,1.02926e+06,50917,5.94895e+07,56485,59660.8,0.000052,1.03052e+06,0.049470,0.036534,0.036518,3611.94,3611.57,550.194,1.697535,551.891,0.152740,132.019,130.031,1.996563,0.274065,0.000000,0.741702,0.000000,378961,0.000000,0.010476,0.000000,0.028006,0.050726,38725.2,0.000716,5.40301e+07,1.273e+07,0.235609,2.02604e+06,8.59915e+06,8.8346e+06,2.00111e+07,4.71481e+06,5.55095e+07,2.05591e+07,
0.276618,25.5,25,1.000001,63,2390,1.02973e+06,50641.1,5.94939e+07,56487.2,59665,0.000052,1.03098e+06,0.049179,0.036244,0.036228,3610.32,3609.99,548.41,1.697535,550.108,0.152313,130.913,128.924,1.996563,0.274642,0.000577,0.741841,0.000139,379759,797.94,0.010478,0.000002,0.027928,0.050749,38616.9,0.000717,5.38555e+07,1.26216e+07,0.234361,2.00879e+06,8.57136e+06,8.8036e+06,1.99465e+07,4.67468e+06,5.53147e+07,2.04869e+07,
0.543359,25.5,25,1.000001,63,2390,1.02984e+06,50337.5,5.94987e+07,56492.2,59668.9,0.000052,1.03107e+06,0.048879,0.035944,0.035929,3610.01,3609.71,547.914,1.697535,549.612,0.152187,129.821,127.832,1.996563,0.275266,0.001201,0.741991,0.000289,380622,1660.87,0.010480,0.000004,0.027905,0.050754,38585,0.000717,5.38069e+07,1.25148e+07,0.232586,1.99178e+06,8.56363e+06,8.79221e+06,1.99285e+07,4.63509e+06,5.52431e+07,2.04604e+07,
0.826740,25.5,25,1.000001,63,2390,1.02977e+06,50062.1,5.9504e+07,56499.6,59675.9,0.000052,1.03098e+06,0.048615,0.035680,0.035665,3610.3,3610.04,547.994,1.697535,549.691,0.152196,128.88,126.891,1.996563,0.275965,0.001900,0.742159,0.000457,381589,2627.53,0.010482,0.000006,0.027906,0.050751,38587.1,0.000717,5.38147e+07,1.24226e+07,0.230841,1.97712e+06,8.56486e+06,8.7901e+06,1.99314e+07,4.60097e+06,5.52299e+07,2.04555e+07,
1.117140,25.5,25.5808,1.000001,63,2390,1.02983e+06,49720.2,5.95084e+07,56500.6,59681.2,0.000052,1.03103e+06,0.048280,0.035346,0.035331,3610.15,3609.93,547.68,1.697535,549.377,0.152113,127.668,125.679,1.996563,0.276528,0.002463,0.742294,0.000592,382366,3405.33,0.010484,0.000008,0.027891,0.050754,38566.3,0.000717,5.37839e+07,1.23039e+07,0.228766,1.95823e+06,8.55997e+06,8.7811e+06,1.992e+07,4.55701e+06,5.51733e+07,2.04346e+07,
1.375042,25.8,26.0966,1.000001,63,2390,1.02981e+06,49541.6,5.95114e+07,56502.6,59681.9,0.000052,1.031e+06,0.048108,0.035174,0.035159,3610.25,3610.06,547.665,1.697535,549.363,0.152104,127.05,125.061,1.996563,0.276929,0.002864,0.742391,0.000688,382921,3960.21,0.010486,0.000010,0.027889,0.050752,38563.9,0.000717,5.37825e+07,1.22434e+07,0.227647,1.9486e+06,8.55975e+06,8.77874e+06,1.99195e+07,4.53461e+06,5.51585e+07,2.04291e+07,
1.701579,26.6625,26.7497,1.000001,63,2390,1.03029e+06,49311.8,5.95151e+07,56504.8,59686.8,0.000052,1.03147e+06,0.047862,0.034928,0.034914,3608.59,3608.42,545.862,1.697535,547.56,0.151674,126.106,124.117,1.996563,0.277403,0.003338,0.742505,0.000802,383577,4616.03,0.010487,0.000011,0.027811,0.050776,38454.8,0.000717,5.3606e+07,1.2151e+07,0.226672,1.93389e+06,8.53166e+06,8.74809e+06,1.98541e+07,4.50037e+06,5.49659e+07,2.03577e+07,
2.012518,27.45,27.3716,1.000001,63,2390,1.03132e+06,49107.8,5.95189e+07,56504.6,59691.6,0.000052,1.03249e+06,0.047616,0.034683,0.034669,3605.03,3604.89,542.154,1.697535,543.852,0.150794,125.098,123.108,1.996563,0.277898,0.003833,0.742624,0.000921,384261,5299.85,0.010489,0.000013,0.027649,0.050827,38231.8,0.000718,5.3243e+07,1.20523e+07,0.226363,1.91817e+06,8.47388e+06,8.68827e+06,1.97196e+07,4.4638e+06,5.45901e+07,2.02185e+07,
2.293817,27.9375,27.9342,1.000001,63,2390,1.0323e+06,48799,5.95224e+07,56506.4,59695.9,0.000052,1.03345e+06,0.047272,0.034339,0.034326,3601.69,3601.6,538.696,1.697535,540.394,0.149972,123.745,121.755,1.996563,0.278355,0.004290,0.742733,0.001031,384893,5931.95,0.010490,0.000015,0.027499,0.050875,38023.4,0.000719,5.29044e+07,1.19198e+07,0.225309,1.8971e+06,8.42e+06,8.63107e+06,1.95942e+07,4.41475e+06,5.42306e+07,2.00854e+07,
2.561599,28.5,28.4697,1.000001,63,2390,1.03337e+06,48485.6,5.95253e+07,56508.4,59700.8,0.000052,1.0345e+06,0.046920,0.033987,0.033974,3598.02,3597.97,534.933,1.697535,536.63,0.149078,122.354,120.364,1.996563,0.278737,0.004672,0.742825,0.001123,385421,6460.21,0.010492,0.000016,0.027335,0.050927,37796.6,0.000719,5.2536e+07,1.17836e+07,0.224296,1.87542e+06,8.36136e+06,8.56911e+06,1.94578e+07,4.3643e+06,5.38413e+07,1.99412e+07,
2.825220,29,28.997,1.000001,61,2390,1.00081e+06,47125.2,5.95298e+07,56565.5,59654,0.000052,1.00192e+06,0.047087,0.034154,0.034141,3597.11,3597.04,533.791,1.697535,535.489,0.148799,122.923,120.933,1.996563,0.279322,0.005257,0.742966,0.001263,386231,7269.56,0.010494,0.000018,0.026417,0.049323,36528.4,0.000697,5.24243e+07,1.18393e+07,0.225837,1.88429e+06,8.34358e+06,8.5537e+06,1.94164e+07,4.38494e+06,5.37445e+07,1.99054e+07,
3.100282,29.5375,29.5471,1.000001,61,2390,1.00169e+06,46924,5.95328e+07,56565.5,59657.4,0.000052,1.00279e+06,0.046845,0.033912,0.033899,3593.99,3593.94,530.558,1.697535,532.256,0.148028,121.947,119.957,1.996563,0.279713,0.005648,0.743059,0.001357,386771,7809.55,0.010495,0.000019,0.026280,0.049366,36339.1,0.000697,5.21078e+07,1.17438e+07,0.225375,1.86908e+06,8.2932e+06,8.50121e+06,1.92992e+07,4.34954e+06,5.34148e+07,1.97832e+07,
3.375343,30.1,30.0972,1.000001,61,2390,1.00284e+06,46735,5.95354e+07,56567,59661.5,0.000052,1.00393e+06,0.046603,0.033670,0.033657,3589.89,3589.87,526.364,1.697535,528.061,0.147028,120.939,118.949,1.996563,0.280058,0.005993,0.743142,0.001440,387248,8287.29,0.010496,0.000020,0.026103,0.049423,36093.6,0.000698,5.16971e+07,1.16451e+07,0.225256,1.85337e+06,8.22785e+06,8.434e+06,1.91471e+07,4.31299e+06,5.29925e+07,1.96268e+07,
3.635065,30.6625,30.6166,1.000001,61,2390,1.00389e+06,46539.4,5.95382e+07,56567.6,59664.8,0.000052,1.00496e+06,0.046359,0.033427,0.033414,3586.2,3586.21,522.57,1.697535,524.268,0.146121,119.943,117.953,1.996563,0.280425,0.006360,0.743230,0.001528,387755,8794.38,0.010497,0.000022,0.025942,0.049474,35870.8,0.000699,5.13257e+07,1.15476e+07,0.224986,1.83785e+06,8.16873e+06,8.37293e+06,1.90095e+07,4.27688e+06,5.26087e+07,1.94847e+07,
3.891927,31.1875,31.1304,1.000001,61,2390,1.00496e+06,46195.1,5.95414e+07,56568.2,59669.9,0.000052,1.00603e+06,0.045967,0.033035,0.033023,3582.41,3582.46,518.682,1.697535,520.379,0.145188,118.413,116.423,1.996563,0.280837,0.006772,0.743329,0.001627,388325,9363.66,0.010499,0.000023,0.025776,0.049527,35642,0.000700,5.0945e+07,1.13978e+07,0.223727,1.81401e+06,8.10815e+06,8.30859e+06,1.88685e+07,4.2214e+06,5.22044e+07,1.9335e+07,
4.168546,31.625,31.6836,1.000001,61,2390,1.00611e+06,46104.8,5.95441e+07,56568,59674.5,0.000052,1.00717e+06,0.045825,0.032893,0.032881,3578.34,3578.41,514.496,1.697535,516.194,0.144184,117.77,115.779,1.996563,0.281196,0.007131,0.743416,0.001713,388821,9860.47,0.010500,0.000024,0.025598,0.049583,35395.4,0.000700,5.05353e+07,1.13348e+07,0.224294,1.80399e+06,8.04293e+06,8.24276e+06,1.87168e+07,4.19807e+06,5.17909e+07,1.91818e+07,
4.425150,32.325,32.1968,1.000001,61,2390,1.00703e+06,45649.5,5.95466e+07,56568.1,59690.6,0.000052,1.00806e+06,0.045331,0.032400,0.032388,3575.17,3575.29,511.263,1.697535,512.961,0.143406,115.903,113.912,1.996563,0.281522,0.007457,0.743494,0.001792,389273,10311.6,0.010501,0.000025,0.025460,0.049628,35204.3,0.000701,5.02188e+07,1.1152e+07,0.222068,1.77489e+06,7.99256e+06,8.18726e+06,1.85995e+07,4.13037e+06,5.14421e+07,1.90526e+07,
4.683831,32.8,32.7142,1.000001,61,2390,1.00853e+06,45687.2,5.95494e+07,56568.8,59683.4,0.000052,1.00956e+06,0.045301,0.032370,0.032358,3569.87,3569.99,505.835,1.697535,507.532,0.142099,115.624,113.634,1.996563,0.281882,0.007817,0.743580,0.001878,389769,10808.4,0.010502,0.000027,0.025228,0.049702,34883.5,0.000702,4.96873e+07,1.11247e+07,0.223895,1.77055e+06,7.90797e+06,8.10376e+06,1.84027e+07,4.12027e+06,5.09175e+07,1.88583e+07,
4.959411,33.3875,33.2653,1.000001,61,2390,1.00967e+06,45396.1,5.9552e+07,56563.4,59697.6,0.000052,1.01069e+06,0.044961,0.032031,0.032020,3565.89,3566.05,501.775,1.697535,503.473,0.141118,114.286,112.296,1.996563,0.282221,0.008156,0.743662,0.001959,390239,11277.9,0.010504,0.000028,0.025054,0.049758,34642.7,0.000703,4.92899e+07,1.09938e+07,0.223043,1.74971e+06,7.84473e+06,8.03749e+06,1.82555e+07,4.07176e+06,5.05011e+07,1.87041e+07,
5.216794,33.8375,33.7801,1.000001,61,2390,1.01098e+06,45236.1,5.95546e+07,56567.1,59693.8,0.000052,1.01199e+06,0.044745,0.031814,0.031804,3561.31,3561.49,497.097,1.697535,498.795,0.139985,113.37,111.379,1.996563,0.282556,0.008491,0.743742,0.002040,390702,11741.4,0.010505,0.000029,0.024853,0.049822,34364.7,0.000704,4.88319e+07,1.0904e+07,0.223297,1.73542e+06,7.77184e+06,7.96324e+06,1.80859e+07,4.03852e+06,5.00345e+07,1.85313e+07,
5.491595,34.4,34.3297,1.000001,61,2390,1.01229e+06,45048.6,5.95572e+07,56571.9,59696.9,0.000052,1.01329e+06,0.044502,0.031571,0.031561,3556.73,3556.93,492.416,1.697535,494.114,0.138849,112.36,110.369,1.996563,0.282900,0.008835,0.743825,0.002122,391178,12217,0.010506,0.000030,0.024651,0.049887,34085.8,0.000705,4.83736e+07,1.08051e+07,0.223367,1.71968e+06,7.6989e+06,7.88862e+06,1.79162e+07,4.00189e+06,4.95657e+07,1.83577e+07,
5.750537,34.9125,34.8476,1.000001,61,2390,1.01341e+06,44740.4,5.95593e+07,56565.6,59699.1,0.000052,1.0144e+06,0.044148,0.031218,0.031208,3552.85,3553.09,488.475,1.697535,490.173,0.137891,110.983,108.992,1.996563,0.283179,0.009114,0.743891,0.002189,391563,12601.7,0.010507,0.000031,0.024481,0.049942,33850.5,0.000705,4.79878e+07,1.06703e+07,0.222355,1.69823e+06,7.6375e+06,7.82402e+06,1.77733e+07,3.95197e+06,4.91598e+07,1.82073e+07,
6.008699,35.45,35.3639,1.000001,61,2390,1.01479e+06,44380.4,5.95619e+07,56567.5,59703.8,0.000052,1.01576e+06,0.043734,0.030804,0.030794,3548.1,3548.38,483.643,1.697535,485.341,0.136713,109.365,107.374,1.996563,0.283521,0.009456,0.743973,0.002271,392036,13075.3,0.010508,0.000032,0.024272,0.050010,33561.3,0.000706,4.75148e+07,1.05119e+07,0.221235,1.67302e+06,7.5622e+06,7.74506e+06,1.75981e+07,3.89331e+06,4.86637e+07,1.80236e+07,
6.300918,35.975,35.9484,1.000001,61,2390,1.01585e+06,44233.6,5.95644e+07,56568,59706.2,0.000052,1.01681e+06,0.043544,0.030614,0.030605,3544.42,3544.72,479.873,1.697535,481.571,0.135791,108.579,106.588,1.996563,0.283841,0.009776,0.744050,0.002348,392478,13517.3,0.010509,0.000033,0.024108,0.050062,33334.9,0.000707,4.71457e+07,1.04349e+07,0.221334,1.66077e+06,7.50346e+06,7.68506e+06,1.74614e+07,3.86479e+06,4.82867e+07,1.7884e+07,
6.574940,36.4875,36.4964,1.000001,61,2390,1.01721e+06,43995.6,5.95667e+07,56568.8,59713.1,0.000052,1.01816e+06,0.043251,0.030322,0.030313,3539.71,3540.04,475.084,1.697535,476.781,0.134618,107.401,105.41,1.996563,0.284147,0.010082,0.744124,0.002421,392902,13940.9,0.010510,0.000034,0.023900,0.050129,33047,0.000708,4.66768e+07,1.03196e+07,0.221086,1.64241e+06,7.42884e+06,7.60823e+06,1.72877e+07,3.82207e+06,4.7804e+07,1.77052e+07,
6.833882,37.0625,37.0143,1.000001,61,2390,1.0182e+06,43937.9,5.95686e+07,56570.9,59714.9,0.000052,1.01914e+06,0.043153,0.030224,0.030214,3536.3,3536.64,471.597,1.697535,473.294,0.133762,106.949,104.958,1.996563,0.284391,0.010326,0.744182,0.002480,393239,14277.9,0.010511,0.000035,0.023748,0.050177,32836.8,0.000709,4.63354e+07,1.02754e+07,0.221761,1.63538e+06,7.37451e+06,7.55366e+06,1.71613e+07,3.8057e+06,4.74611e+07,1.75782e+07,
7.125062,37.7375,37.5966,1.000001,61,2390,1.01967e+06,43708.9,5.95708e+07,56569.2,59718.1,0.000052,1.02061e+06,0.042866,0.029937,0.029928,3531.22,3531.58,466.434,1.697535,468.132,0.132492,105.782,103.791,1.996563,0.284678,0.010613,0.744251,0.002549,393637,14675.5,0.010512,0.000036,0.023522,0.050250,32525.2,0.000710,4.583e+07,1.01611e+07,0.221713,1.61719e+06,7.29407e+06,7.4712e+06,1.69741e+07,3.76338e+06,4.69429e+07,1.73863e+07,
7.413900,38.2,38.1743,1.000001,61,2390,1.02081e+06,43515.5,5.95732e+07,56568.9,59725.6,0.000052,1.02174e+06,0.042628,0.029700,0.029691,3527.32,3527.71,462.444,1.697535,464.142,0.131507,104.829,102.838,1.996563,0.284992,0.010927,0.744326,0.002624,394071,15109.7,0.010513,0.000037,0.023347,0.050306,32283.4,0.000711,4.54394e+07,1.00678e+07,0.221566,1.60235e+06,7.2319e+06,7.40729e+06,1.68294e+07,3.72883e+06,4.65414e+07,1.72376e+07,
7.671804,38.8,38.6901,1.000001,61,2390,1.02198e+06,43327.1,5.95752e+07,56565.5,59726,0.000052,1.0229e+06,0.042395,0.029467,0.029458,3523.31,3523.72,458.369,1.697535,460.066,0.130500,103.89,101.899,1.996563,0.285256,0.011191,0.744390,0.002687,394435,15474,0.010514,0.000038,0.023168,0.050364,32036,0.000711,4.50404e+07,9.97586e+06,0.221487,1.58771e+06,7.1684e+06,7.34212e+06,1.66816e+07,3.69476e+06,4.61319e+07,1.70859e+07,
7.947123,39.3125,39.2408,1.000001,61,2390,1.0231e+06,43136.1,5.95773e+07,56567.6,59731.1,0.000052,1.024e+06,0.042162,0.029234,0.029226,3519.51,3519.95,454.496,1.697535,456.193,0.129540,102.959,100.968,1.996563,0.285525,0.011460,0.744454,0.002752,394808,15846.8,0.010515,0.000039,0.022998,0.050418,31800.4,0.000712,4.46613e+07,9.88475e+06,0.221327,1.57321e+06,7.10805e+06,7.28007e+06,1.65412e+07,3.66102e+06,4.57421e+07,1.69415e+07,
8.205805,39.775,39.7581,1.000001,61,2390,1.02407e+06,42853.9,5.95789e+07,56569,59735.5,0.000052,1.02497e+06,0.041847,0.028919,0.028911,3516.21,3516.67,451.146,1.697535,452.844,0.128708,101.753,99.7621,1.996563,0.285737,0.011672,0.744505,0.002803,395100,16139.3,0.010515,0.000040,0.022850,0.050466,31596.3,0.000713,4.43333e+07,9.76669e+06,0.220301,1.55442e+06,7.05586e+06,7.22506e+06,1.64198e+07,3.61729e+06,4.53964e+07,1.68135e+07,
8.463449,40.3375,40.2734,1.000001,61,2390,1.02492e+06,42790.1,5.95805e+07,56570.5,59734.8,0.000052,1.02581e+06,0.041750,0.028822,0.028814,3513.3,3513.77,448.175,1.697535,449.873,0.127969,101.329,99.3376,1.996563,0.285942,0.011877,0.744554,0.002852,395384,16422.8,0.010516,0.000040,0.022719,0.050508,31414.9,0.000713,4.40424e+07,9.72513e+06,0.220813,1.5478e+06,7.00957e+06,7.17842e+06,1.6312e+07,3.6019e+06,4.51034e+07,1.6705e+07,
8.737989,40.8875,40.8225,1.000001,61,2390,1.02591e+06,42611,5.95824e+07,56572,59738.1,0.000052,1.0268e+06,0.041535,0.028607,0.028599,3509.94,3510.44,444.746,1.697535,446.444,0.127115,100.479,98.4871,1.996563,0.286193,0.012128,0.744614,0.002912,395731,16770.1,0.010517,0.000041,0.022568,0.050557,31205.1,0.000714,4.37068e+07,9.64187e+06,0.220604,1.53455e+06,6.95615e+06,7.1234e+06,1.61877e+07,3.57106e+06,4.47577e+07,1.65769e+07,
8.996413,41.325,41.3393,1.000001,61,2390,1.02701e+06,42370.9,5.95842e+07,56568.2,59743.2,0.000052,1.02788e+06,0.041257,0.028329,0.028322,3506.23,3506.75,440.973,1.697535,442.67,0.126173,99.3975,97.406,1.996563,0.286431,0.012366,0.744671,0.002969,396059,17098.3,0.010518,0.000042,0.022400,0.050611,30973.9,0.000715,4.33374e+07,9.53603e+06,0.220042,1.51771e+06,6.89735e+06,7.06235e+06,1.60509e+07,3.53186e+06,4.43741e+07,1.64349e+07,
9.255615,41.925,41.8578,1.000001,61,2390,1.02767e+06,42249,5.95856e+07,56570.5,59743.1,0.000052,1.02854e+06,0.041111,0.028184,0.028177,3503.99,3504.52,438.679,1.697535,440.377,0.125599,98.8255,96.8339,1.996563,0.286608,0.012542,0.744714,0.003011,396304,17342.9,0.010518,0.000043,0.022298,0.050644,30833,0.000715,4.31128e+07,9.48003e+06,0.219889,1.50879e+06,6.86161e+06,7.02554e+06,1.59677e+07,3.51112e+06,4.41428e+07,1.63492e+07,
9.513777,42.55,42.3741,1.000001,61,2390,1.02857e+06,42252,5.95874e+07,56570.6,59748.8,0.000052,1.02944e+06,0.041078,0.028151,0.028144,3500.94,3501.47,435.548,1.697535,437.246,0.124814,98.6244,96.6328,1.996563,0.286846,0.012781,0.744771,0.003068,396634,17672.7,0.010519,0.000043,0.022159,0.050688,30640.4,0.000716,4.28063e+07,9.46033e+06,0.221003,1.50566e+06,6.81282e+06,6.97722e+06,1.58542e+07,3.50383e+06,4.38392e+07,1.62367e+07,
9.775578,42.9875,42.8977,1.000001,61,2390,1.0294e+06,42246.5,5.95887e+07,56572.5,59748.4,0.000052,1.03026e+06,0.041040,0.028113,0.028105,3498.13,3498.66,432.682,1.697535,434.38,0.124096,98.4112,96.4196,1.996563,0.287018,0.012953,0.744812,0.003110,396871,17910,0.010520,0.000044,0.022032,0.050728,30464,0.000716,4.25257e+07,9.43947e+06,0.221971,1.50234e+06,6.76818e+06,6.93291e+06,1.57503e+07,3.4961e+06,4.35608e+07,1.61336e+07,
10.0332,43.5,43.413,1.000001,61,2390,1.03009e+06,42174.4,5.95902e+07,56572.1,59751.1,0.000052,1.03096e+06,0.040942,0.028015,0.028008,3495.79,3496.33,430.276,1.697535,431.973,0.123491,98.0039,96.0122,1.996563,0.287209,0.013144,0.744858,0.003155,397136,18174.7,0.010520,0.000045,0.021924,0.050763,30315.4,0.000717,4.22901e+07,9.39958e+06,0.222264,1.49599e+06,6.73067e+06,6.89492e+06,1.5663e+07,3.48133e+06,4.33221e+07,1.60452e+07,
10.2974,44.075,43.9412,1.000001,61,2390,1.03083e+06,42258.1,5.95917e+07,56570.9,59753.5,0.000052,1.03169e+06,0.040994,0.028067,0.028060,3493.29,3493.82,427.701,1.697535,429.398,0.122842,98.1158,96.124,1.996563,0.287415,0.013350,0.744907,0.003205,397420,18459.5,0.010521,0.000045,0.021809,0.050799,30156.3,0.000717,4.2038e+07,9.41053e+06,0.223858,1.49773e+06,6.69055e+06,6.85614e+06,1.55696e+07,3.48538e+06,4.30784e+07,1.5955e+07,
10.5917,44.575,44.5298,1.000001,61,2390,1.03154e+06,42213.6,5.95934e+07,56574.6,59756.8,0.000052,1.0324e+06,0.040923,0.027996,0.027988,3490.88,3491.42,425.215,1.697535,426.912,0.122215,97.7983,95.8065,1.996563,0.287635,0.013570,0.744960,0.003258,397725,18763.7,0.010522,0.000046,0.021698,0.050834,30002.4,0.000718,4.17946e+07,9.37944e+06,0.224417,1.49278e+06,6.65182e+06,6.81727e+06,1.54795e+07,3.47387e+06,4.28342e+07,1.58645e+07,
10.855,45.15,45.0566,1.000001,61,2390,1.03153e+06,42612.6,5.95954e+07,56562.6,59771.4,0.000052,1.03241e+06,0.041310,0.028383,0.028375,3490.88,3491.38,425.084,1.697535,426.781,0.122179,99.1493,97.1575,1.996563,0.287888,0.013822,0.745020,0.003318,398074,19112.9,0.010523,0.000047,0.021691,0.050834,29993.5,0.000718,4.17818e+07,9.5117e+06,0.227652,1.51383e+06,6.64978e+06,6.81991e+06,1.54747e+07,3.52285e+06,4.28508e+07,1.58707e+07,
11.1134,45.7125,45.5734,1.000001,61,2390,1.03191e+06,42792.8,5.95972e+07,56578.6,59762.1,0.000052,1.0328e+06,0.041469,0.028542,0.028534,3489.54,3490.03,423.646,1.697535,425.344,0.121815,99.6658,97.6739,1.996563,0.288132,0.014067,0.745079,0.003377,398413,19451.6,0.010524,0.000048,0.021627,0.050853,29904.1,0.000718,4.16411e+07,9.56226e+06,0.229635,1.52188e+06,6.62738e+06,6.79988e+06,1.54226e+07,3.54158e+06,4.27249e+07,1.5824e+07,
11.3708,46.1125,46.0882,1.000001,61,2390,1.03189e+06,42747.5,5.95992e+07,56529.5,59831.9,0.000052,1.03277e+06,0.041426,0.028499,0.028491,3489.63,3490.12,423.647,1.697535,425.344,0.121812,99.5188,97.5268,1.996563,0.288387,0.014322,0.745140,0.003438,398765,19804.1,0.010524,0.000049,0.021626,0.050852,29903.3,0.000718,4.16411e+07,9.54786e+06,0.229289,1.51959e+06,6.62738e+06,6.79937e+06,1.54226e+07,3.53624e+06,4.27217e+07,1.58229e+07,
11.6589,46.625,46.6643,1.000001,59,2390,997984,41709,5.96026e+07,56623.5,59734.9,0.000052,998855,0.041793,0.028865,0.028857,3489.83,3490.28,423.653,1.697535,425.351,0.121808,100.803,98.8114,1.996563,0.288836,0.014771,0.745248,0.003545,399386,20424.7,0.010526,0.000050,0.020916,0.049181,28921.9,0.000695,4.16418e+07,9.67362e+06,0.232305,1.5396e+06,6.62749e+06,6.80397e+06,1.54229e+07,3.58282e+06,4.27506e+07,1.58336e+07,
11.935,47.3,47.2165,1.000001,59,2390,997868,41756.4,5.96045e+07,56633.6,59721.1,0.000052,998741,0.041846,0.028918,0.028910,3490.23,3490.67,423.958,1.697535,425.655,0.121881,100.997,99.0052,1.996563,0.289082,0.015017,0.745307,0.003604,399726,20765.1,0.010527,0.000051,0.020929,0.049175,28939.4,0.000695,4.16716e+07,9.69259e+06,0.232595,1.54262e+06,6.63223e+06,6.80927e+06,1.54339e+07,3.58985e+06,4.27839e+07,1.58459e+07,
12.1926,47.7375,47.7318,1.000001,59,2390,997820,42047.8,5.96064e+07,56649.2,59722.8,0.000052,998705,0.042140,0.029211,0.029203,3490.35,3490.77,423.964,1.697535,425.662,0.121880,102.026,100.034,1.996563,0.289333,0.015268,0.745367,0.003664,400072,21111.3,0.010528,0.000052,0.020929,0.049173,28939,0.000695,4.16722e+07,9.7933e+06,0.235008,1.55865e+06,6.63233e+06,6.81302e+06,1.54341e+07,3.62715e+06,4.28075e+07,1.58546e+07,
12.4846,48.3625,48.3157,1.000001,59,2390,997614,42292.5,5.96082e+07,56651,59726.6,0.000052,998510,0.042394,0.029465,0.029457,3491.04,3491.43,424.54,1.697535,426.237,0.122022,102.932,100.94,1.996563,0.289565,0.015500,0.745422,0.003720,400394,21432.9,0.010528,0.000053,0.020953,0.049163,28972.7,0.000694,4.17286e+07,9.88199e+06,0.236816,1.57277e+06,6.6413e+06,6.82499e+06,1.5455e+07,3.66e+06,4.28827e+07,1.58825e+07,
12.7916,49.0375,48.9298,1.000001,59,2390,997973,42454.8,5.961e+07,56652.6,59725.1,0.000052,998876,0.042541,0.029612,0.029604,3489.76,3490.13,423.158,1.697535,424.855,0.121671,103.408,101.415,1.996563,0.289807,0.015742,0.745480,0.003778,400728,21766.5,0.010529,0.000053,0.020893,0.049181,28889.5,0.000695,4.15933e+07,9.92855e+06,0.238706,1.58018e+06,6.61977e+06,6.80575e+06,1.54049e+07,3.67724e+06,4.27618e+07,1.58377e+07,
13.101,49.5375,49.5485,1.000001,59,2390,998756,42502.8,5.96116e+07,56648.6,59727.9,0.000052,999659,0.042556,0.029627,0.029618,3487.02,3487.39,420.349,1.697535,422.046,0.120962,103.378,101.386,1.996563,0.290004,0.015939,0.745528,0.003825,401001,22039.5,0.010530,0.000054,0.020771,0.049219,28721,0.000695,4.13183e+07,9.92563e+06,0.240224,1.57971e+06,6.576e+06,6.76308e+06,1.53031e+07,3.67616e+06,4.24937e+07,1.57384e+07,
13.4127,50.2375,50.172,1.000001,59,2390,999743,42660,5.96131e+07,56646.5,59732.9,0.000052,1.00065e+06,0.042671,0.029742,0.029733,3483.56,3483.92,416.799,1.697535,418.496,0.120064,103.676,101.684,1.996563,0.290211,0.016146,0.745577,0.003875,401287,22326,0.010531,0.000055,0.020617,0.049268,28507.8,0.000696,4.09707e+07,9.95482e+06,0.242974,1.58436e+06,6.52068e+06,6.7104e+06,1.51743e+07,3.68697e+06,4.21627e+07,1.56158e+07,
13.68,50.725,50.7065,1.000001,59,2390,1.00144e+06,43099.9,5.96136e+07,56649.4,59737.1,0.000052,1.00236e+06,0.043038,0.030109,0.030100,3477.62,3477.93,410.792,1.697535,412.489,0.118544,104.774,102.782,1.996563,0.290273,0.016208,0.745592,0.003890,401373,22411.8,0.010531,0.000055,0.020356,0.049352,28146.9,0.000697,4.03826e+07,1.00623e+07,0.249174,1.60147e+06,6.42709e+06,6.62361e+06,1.49565e+07,3.72679e+06,4.16174e+07,1.54139e+07,
13.9701,51.2,51.2868,1.000001,59,2390,1.00266e+06,42936.8,5.96142e+07,56646.5,59735.4,0.000052,1.00358e+06,0.042823,0.029894,0.029885,3473.4,3473.73,406.563,1.697535,408.26,0.117471,103.9,101.907,1.996563,0.290348,0.016283,0.745610,0.003908,401476,22514.8,0.010531,0.000055,0.020172,0.049412,27892.1,0.000698,3.99686e+07,9.97672e+06,0.249614,1.58784e+06,6.3612e+06,6.55638e+06,1.48032e+07,3.69508e+06,4.1195e+07,1.52574e+07,
14.2301,51.6875,51.8067,1.000001,59,2390,1.00348e+06,43035.5,5.9615e+07,56648.2,59738,0.000052,1.0044e+06,0.042886,0.029958,0.029949,3470.57,3470.9,403.691,1.697535,405.388,0.116739,104.036,102.044,1.996563,0.290460,0.016395,0.745637,0.003934,401631,22670.2,0.010531,0.000056,0.020046,0.049452,27718.4,0.000698,3.96875e+07,9.99006e+06,0.251718,1.58997e+06,6.31645e+06,6.51349e+06,1.46991e+07,3.70002e+06,4.09255e+07,1.51576e+07,
14.5299,52.475,52.4063,1.000001,59,2390,1.00457e+06,43226.2,5.96157e+07,56646.6,59742.2,0.000052,1.0055e+06,0.043029,0.030100,0.030091,3466.76,3467.07,399.829,1.697535,401.527,0.115755,104.417,102.424,1.996563,0.290547,0.016481,0.745657,0.003955,401751,22789.6,0.010532,0.000056,0.019877,0.049507,27484.7,0.000699,3.93094e+07,1.00273e+07,0.255088,1.5959e+06,6.25628e+06,6.45662e+06,1.4559e+07,3.71383e+06,4.05682e+07,1.50252e+07,
14.7927,52.9875,52.9319,1.000001,59,2390,1.00592e+06,43343.5,5.96167e+07,56644,59742.4,0.000052,1.00685e+06,0.043088,0.030159,0.030150,3462.1,3462.4,395.119,1.697535,396.816,0.114551,104.48,102.488,1.996563,0.290678,0.016613,0.745689,0.003987,401933,22971.8,0.010532,0.000056,0.019670,0.049573,27198.8,0.000700,3.88482e+07,1.00335e+07,0.258275,1.59688e+06,6.18288e+06,6.38577e+06,1.43882e+07,3.71612e+06,4.0123e+07,1.48604e+07,
15.0883,53.5,53.5231,1.000001,59,2390,1.00769e+06,43467,5.96188e+07,56642.8,59745.8,0.000052,1.00862e+06,0.043135,0.030206,0.030197,3456.03,3456.32,388.937,1.697535,390.635,0.112965,104.459,102.467,1.996563,0.290957,0.016892,0.745756,0.004053,402318,23356.6,0.010533,0.000057,0.019398,0.049660,26822.2,0.000701,3.82431e+07,1.00315e+07,0.262308,1.59656e+06,6.08657e+06,6.29248e+06,1.41641e+07,3.71536e+06,3.95369e+07,1.46433e+07,
15.347,54.1,54.0405,1.000001,59,2390,1.00881e+06,43515.5,5.96193e+07,56643.2,59751.1,0.000052,1.00975e+06,0.043136,0.030206,0.030197,3452.19,3452.48,385.075,1.697535,386.772,0.111972,104.344,102.351,1.996563,0.291016,0.016951,0.745770,0.004068,402400,23439,0.010533,0.000057,0.019227,0.049715,26586.6,0.000702,3.7865e+07,1.00201e+07,0.264628,1.59475e+06,6.02639e+06,6.23383e+06,1.40241e+07,3.71116e+06,3.91683e+07,1.45068e+07,
15.621,54.6375,54.5885,1.000001,59,2390,1.01075e+06,43685.6,5.96211e+07,56635.8,59754.4,0.000052,1.01169e+06,0.043221,0.030292,0.030283,3445.56,3445.84,378.343,1.697535,380.041,0.110236,104.437,102.445,1.996563,0.291259,0.017194,0.745828,0.004126,402736,23774.7,0.010534,0.000058,0.018929,0.049811,26174.2,0.000704,3.72059e+07,1.00293e+07,0.269563,1.59622e+06,5.9215e+06,6.13287e+06,1.378e+07,3.71457e+06,3.8534e+07,1.42718e+07,
15.8794,55.1125,55.1054,1.000001,59,2390,1.0132e+06,43549.8,5.9625e+07,56639.4,59759.5,0.000052,1.01414e+06,0.042982,0.030053,0.030044,3437.24,3437.54,369.863,1.697535,371.561,0.108036,103.365,101.372,1.996563,0.291764,0.017699,0.745949,0.004247,403434,24472.9,0.010536,0.000060,0.018552,0.049932,25651.9,0.000705,3.63757e+07,9.92431e+06,0.272828,1.5795e+06,5.78938e+06,6.00097e+06,1.34725e+07,3.67567e+06,3.77053e+07,1.39649e+07,
16.1386,55.7,55.6238,1.000001,59,2390,1.01433e+06,43667.1,5.96257e+07,56640.2,59765.9,0.000052,1.01527e+06,0.043050,0.030121,0.030112,3433.4,3433.68,365.979,1.697535,367.676,0.107026,103.482,101.489,1.996563,0.291859,0.017794,0.745972,0.004269,403565,24604.5,0.010536,0.000060,0.018378,0.049988,25412.2,0.000706,3.59955e+07,9.93575e+06,0.276028,1.58132e+06,5.72885e+06,5.94309e+06,1.33316e+07,3.67991e+06,3.73416e+07,1.38302e+07,
16.4002,56.1375,56.1469,1.000001,59,2390,1.01576e+06,43734.2,5.96257e+07,56631.4,59764.5,0.000052,1.0167e+06,0.043056,0.030127,0.030118,3428.59,3428.87,361.164,1.697535,362.861,0.105773,103.356,101.364,1.996563,0.291860,0.017795,0.745972,0.004270,403566,24605.5,0.010536,0.000060,0.018163,0.050058,25114.6,0.000707,3.55241e+07,9.92347e+06,0.279345,1.57937e+06,5.65382e+06,5.87028e+06,1.31571e+07,3.67536e+06,3.68841e+07,1.36608e+07,
16.675,56.6,56.6965,1.000001,59,2390,1.01627e+06,43975,5.96235e+07,56633.2,59763.2,0.000052,1.01722e+06,0.043271,0.030342,0.030332,3426.82,3427.08,359.479,1.697535,361.177,0.105337,104.039,102.046,1.996563,0.291561,0.017496,0.745900,0.004198,403154,24192.7,0.010535,0.000059,0.018088,0.050084,25011.1,0.000707,3.53591e+07,9.99033e+06,0.282539,1.59001e+06,5.62758e+06,5.84788e+06,1.3096e+07,3.70012e+06,3.67434e+07,1.36087e+07,
16.9344,57.1625,57.2154,1.000001,59,2390,1.01711e+06,44031.1,5.96223e+07,56627.6,59766.8,0.000052,1.01807e+06,0.043290,0.030361,0.030352,3423.98,3424.23,356.686,1.697535,358.384,0.104609,104.019,102.026,1.996563,0.291407,0.017342,0.745863,0.004161,402940,23978.8,0.010535,0.000059,0.017963,0.050125,24838.3,0.000708,3.50857e+07,9.98833e+06,0.284684,1.58969e+06,5.58406e+06,5.80593e+06,1.29947e+07,3.69938e+06,3.64798e+07,1.3511e+07,
17.1918,57.775,57.7302,1.000001,59,2390,1.01786e+06,44231.5,5.9622e+07,56626.8,59762.8,0.000052,1.01882e+06,0.043455,0.030526,0.030517,3421.45,3421.68,354.148,1.697535,355.845,0.103946,104.506,102.514,1.996563,0.291377,0.017312,0.745856,0.004154,402899,23938.2,0.010535,0.000059,0.017849,0.050162,24680.7,0.000708,3.48372e+07,1.00361e+07,0.288085,1.59729e+06,5.54451e+06,5.77e+06,1.29027e+07,3.71706e+06,3.6254e+07,1.34274e+07,
17.4866,58.325,58.3198,1.000001,59,2390,1.01953e+06,44359.1,5.96229e+07,56626.9,59765.9,0.000052,1.0205e+06,0.043509,0.030580,0.030570,3415.82,3416.05,348.473,1.697535,350.171,0.102457,104.518,102.525,1.996563,0.291494,0.017429,0.745884,0.004182,403061,24100.3,0.010535,0.000059,0.017593,0.050245,24327.2,0.000710,3.42817e+07,1.00372e+07,0.292786,1.59747e+06,5.45609e+06,5.68514e+06,1.26969e+07,3.71748e+06,3.57208e+07,1.32299e+07,
17.7622,58.95,58.871,1.000001,59,2390,1.01905e+06,44510.8,5.96219e+07,56626,59765.9,0.000052,1.02002e+06,0.043679,0.030749,0.030739,3417.42,3417.63,350.105,1.697535,351.802,0.102886,105.145,103.153,1.996563,0.291358,0.017293,0.745852,0.004150,402873,23912.2,0.010534,0.000059,0.017667,0.050221,24429.2,0.000709,3.44414e+07,1.00986e+07,0.293212,1.60725e+06,5.48152e+06,5.71229e+06,1.27561e+07,3.74024e+06,3.58914e+07,1.32931e+07,
18.0373,59.4,59.4211,1.000001,59,2390,1.01628e+06,45033.8,5.96212e+07,56627.9,59759.9,0.000052,1.01728e+06,0.044312,0.031382,0.031372,3426.62,3426.76,359.268,1.697535,360.966,0.105285,107.596,105.603,1.996563,0.291271,0.017206,0.745831,0.004129,402752,23791.1,0.010534,0.000058,0.018079,0.050085,24998.8,0.000707,3.53385e+07,1.03385e+07,0.292558,1.64543e+06,5.62429e+06,5.86004e+06,1.30883e+07,3.82909e+06,3.68198e+07,1.36369e+07,
18.296,59.9,59.9385,1.000001,59,2390,1.01272e+06,45859.6,5.96215e+07,56632,59753.9,0.000052,1.01375e+06,0.045284,0.032353,0.032341,3438.54,3438.59,371.078,1.697535,372.776,0.108356,111.307,109.314,1.996563,0.291308,0.017243,0.745840,0.004137,402803,23842.3,0.010534,0.000058,0.018606,0.049910,25727.9,0.000705,3.64947e+07,1.07018e+07,0.293244,1.70325e+06,5.80831e+06,6.05289e+06,1.35166e+07,3.96365e+06,3.80315e+07,1.40857e+07,